Temperature (K)	Pressure (MPa)	Density (l, kg/m3)	Volume (l, m3/kg)	Internal Energy (l, kJ/kg)	Enthalpy (l, kJ/kg)	Entropy (l, J/g*K)	Cv (l, J/g*K)	Cp (l, J/g*K)	Sound Spd. (l, m/s)	Joule-Thomson (l, K/MPa)	Viscosity (l, uPa*s)	Therm. Cond. (l, W/m*K)	Surf. Tension (l, N/m)	Density (v, kg/m3)	Volume (v, m3/kg)	Internal Energy (v, kJ/kg)	Enthalpy (v, kJ/kg)	Entropy (v, J/g*K)	Cv (v, J/g*K)	Cp (v, J/g*K)	Sound Spd. (v, m/s)	Joule-Thomson (v, K/MPa)	Viscosity (v, uPa*s)	Therm. Cond. (v, W/m*K)
216.59	0.51795	1178.5	0.00084856	79.595	80.034	0.52131	0.97466	1.9532	975.85	-0.14430	253.37	0.17716	0.016495	13.761	0.072672	392.78	430.42	2.1390	0.62920	0.90871	222.78	26.174	10.892	0.011116
217.09	0.52938	1176.7	0.00084986	80.571	81.021	0.52582	0.97394	1.9544	972.21	-0.14253	251.23	0.17653	0.016376	14.050	0.071173	392.93	430.60	2.1361	0.63062	0.91179	222.84	26.008	10.917	0.011161
217.59	0.54081	1174.9	0.00085115	81.532	81.992	0.53024	0.97323	1.9556	968.62	-0.14077	249.15	0.17591	0.016259	14.340	0.069734	393.07	430.78	2.1332	0.63201	0.91486	222.90	25.847	10.941	0.011205
218.08	0.55225	1173.1	0.00085243	82.478	82.949	0.53459	0.97253	1.9568	965.10	-0.13900	247.12	0.17530	0.016144	14.630	0.068354	393.21	430.96	2.1304	0.63340	0.91792	222.95	25.689	10.966	0.011249
218.56	0.56368	1171.4	0.00085369	83.410	83.891	0.53886	0.97185	1.9580	961.63	-0.13724	245.14	0.17470	0.016031	14.919	0.067026	393.35	431.13	2.1277	0.63477	0.92096	223.00	25.536	10.989	0.011292
219.03	0.57511	1169.7	0.00085494	84.328	84.820	0.54306	0.97119	1.9592	958.22	-0.13548	243.20	0.17411	0.015921	15.209	0.065750	393.49	431.30	2.1249	0.63613	0.92399	223.05	25.387	11.013	0.011335
219.50	0.58654	1168.0	0.00085618	85.233	85.735	0.54719	0.97053	1.9604	954.86	-0.13373	241.31	0.17353	0.015811	15.499	0.064522	393.62	431.46	2.1223	0.63747	0.92701	223.10	25.241	11.036	0.011377
219.95	0.59798	1166.3	0.00085741	86.125	86.638	0.55125	0.96989	1.9617	951.55	-0.13197	239.47	0.17296	0.015704	15.788	0.063339	393.75	431.62	2.1197	0.63881	0.93002	223.14	25.098	11.059	0.011419
220.41	0.60941	1164.7	0.00085862	87.005	87.528	0.55525	0.96926	1.9629	948.28	-0.13022	237.67	0.17239	0.015598	16.078	0.062198	393.87	431.78	2.1171	0.64013	0.93302	223.18	24.959	11.082	0.011461
220.85	0.62084	1163.0	0.00085983	87.872	88.406	0.55919	0.96864	1.9642	945.07	-0.12847	235.91	0.17184	0.015494	16.367	0.061098	394.00	431.93	2.1146	0.64144	0.93601	223.22	24.823	11.105	0.011502
221.29	0.63227	1161.4	0.00086102	88.729	89.273	0.56307	0.96804	1.9655	941.89	-0.12672	234.18	0.17129	0.015392	16.657	0.060036	394.12	432.07	2.1122	0.64274	0.93899	223.26	24.691	11.127	0.011544
221.73	0.64370	1159.8	0.00086220	89.574	90.129	0.56688	0.96744	1.9667	938.77	-0.12497	232.50	0.17075	0.015291	16.946	0.059010	394.23	432.22	2.1097	0.64403	0.94196	223.29	24.561	11.149	0.011584
222.15	0.65514	1158.2	0.00086338	90.408	90.974	0.57065	0.96686	1.9680	935.68	-0.12323	230.85	0.17022	0.015191	17.236	0.058019	394.35	432.36	2.1073	0.64531	0.94492	223.32	24.434	11.170	0.011625
222.58	0.66657	1156.7	0.00086454	91.232	91.808	0.57436	0.96628	1.9693	932.63	-0.12148	229.24	0.16970	0.015093	17.525	0.057060	394.46	432.49	2.1050	0.64658	0.94788	223.35	24.310	11.192	0.011665
222.99	0.67800	1155.1	0.00086569	92.045	92.632	0.57801	0.96572	1.9707	929.63	-0.11974	227.65	0.16918	0.014996	17.815	0.056133	394.57	432.63	2.1027	0.64784	0.95083	223.38	24.188	11.213	0.011705
223.40	0.68943	1153.6	0.00086684	92.849	93.447	0.58162	0.96517	1.9720	926.66	-0.11800	226.10	0.16867	0.014901	18.104	0.055235	394.67	432.76	2.1004	0.64909	0.95377	223.41	24.069	11.234	0.011744
223.81	0.70087	1152.1	0.00086798	93.643	94.252	0.58517	0.96462	1.9733	923.73	-0.11625	224.59	0.16817	0.014807	18.394	0.054365	394.78	432.88	2.0982	0.65033	0.95670	223.43	23.953	11.255	0.011784
224.21	0.71230	1150.6	0.00086911	94.428	95.047	0.58868	0.96408	1.9747	920.83	-0.11451	223.10	0.16768	0.014714	18.684	0.053522	394.88	433.00	2.0960	0.65156	0.95963	223.45	23.839	11.275	0.011823
224.61	0.72373	1149.1	0.00087023	95.204	95.834	0.59214	0.96356	1.9760	917.97	-0.11277	221.64	0.16719	0.014622	18.974	0.052705	394.98	433.13	2.0938	0.65279	0.96255	223.47	23.727	11.296	0.011861
225.00	0.73516	1147.7	0.00087134	95.972	96.612	0.59556	0.96304	1.9774	915.14	-0.11103	220.20	0.16670	0.014532	19.263	0.051912	395.08	433.24	2.0917	0.65400	0.96547	223.49	23.617	11.316	0.011900
225.39	0.74659	1146.2	0.00087244	96.730	97.382	0.59893	0.96253	1.9787	912.35	-0.10929	218.80	0.16622	0.014443	19.553	0.051142	395.17	433.36	2.0896	0.65521	0.96838	223.50	23.509	11.336	0.011938
225.77	0.75803	1144.8	0.00087354	97.481	98.143	0.60226	0.96203	1.9801	909.58	-0.10755	217.42	0.16575	0.014355	19.843	0.050395	395.27	433.47	2.0875	0.65641	0.97129	223.52	23.403	11.356	0.011976
226.15	0.76946	1143.3	0.00087463	98.223	98.896	0.60555	0.96154	1.9815	906.85	-0.10581	216.07	0.16529	0.014268	20.133	0.049669	395.36	433.58	2.0854	0.65760	0.97419	223.53	23.300	11.375	0.012014
226.53	0.78089	1141.9	0.00087571	98.958	99.642	0.60880	0.96105	1.9829	904.15	-0.10407	214.74	0.16483	0.014182	20.423	0.048964	395.45	433.68	2.0834	0.65879	0.97709	223.54	23.198	11.394	0.012052
226.90	0.79232	1140.5	0.00087679	99.685	100.38	0.61201	0.96057	1.9843	901.47	-0.10233	213.43	0.16437	0.014097	20.714	0.048278	395.54	433.79	2.0814	0.65996	0.97999	223.55	23.098	11.414	0.012089
227.27	0.80376	1139.1	0.00087786	100.40	101.11	0.61518	0.96010	1.9857	898.83	-0.10059	212.15	0.16392	0.014013	21.004	0.047610	395.62	433.89	2.0795	0.66113	0.98288	223.56	22.999	11.433	0.012127
227.63	0.81519	1137.8	0.00087892	101.12	101.83	0.61832	0.95964	1.9871	896.21	-0.098847	210.88	0.16348	0.013930	21.294	0.046961	395.71	433.99	2.0775	0.66230	0.98576	223.56	22.903	11.452	0.012164
227.99	0.82662	1136.4	0.00087998	101.82	102.55	0.62142	0.95918	1.9886	893.62	-0.097106	209.64	0.16304	0.013848	21.585	0.046329	395.79	434.09	2.0756	0.66345	0.98865	223.57	22.808	11.470	0.012201
228.34	0.83805	1135.0	0.00088103	102.52	103.26	0.62448	0.95873	1.9900	891.06	-0.095364	208.43	0.16260	0.013767	21.875	0.045714	395.87	434.18	2.0737	0.66460	0.99153	223.57	22.715	11.489	0.012237
228.69	0.84949	1133.7	0.00088207	103.21	103.96	0.62751	0.95829	1.9914	888.52	-0.093621	207.23	0.16217	0.013687	22.166	0.045114	395.95	434.27	2.0718	0.66575	0.99441	223.58	22.623	11.507	0.012274
229.04	0.86092	1132.4	0.00088311	103.90	104.66	0.63051	0.95786	1.9929	886.00	-0.091878	206.05	0.16174	0.013608	22.457	0.044530	396.02	434.36	2.0700	0.66689	0.99728	223.58	22.533	11.526	0.012310
229.39	0.87235	1131.0	0.00088414	104.58	105.35	0.63347	0.95743	1.9943	883.51	-0.090133	204.89	0.16132	0.013529	22.748	0.043960	396.10	434.45	2.0682	0.66802	1.0002	223.58	22.444	11.544	0.012346
229.73	0.88378	1129.7	0.00088517	105.25	106.03	0.63641	0.95700	1.9958	881.04	-0.088388	203.74	0.16091	0.013452	23.039	0.043405	396.17	434.53	2.0664	0.66914	1.0030	223.58	22.357	11.562	0.012382
230.07	0.89521	1128.4	0.00088619	105.91	106.71	0.63931	0.95659	1.9973	878.60	-0.086642	202.62	0.16049	0.013375	23.330	0.042863	396.25	434.62	2.0646	0.67026	1.0059	223.57	22.271	11.580	0.012418
230.40	0.90665	1127.1	0.00088721	106.58	107.38	0.64218	0.95618	1.9987	876.18	-0.084895	201.51	0.16008	0.013299	23.621	0.042335	396.32	434.70	2.0628	0.67137	1.0088	223.57	22.186	11.597	0.012454
230.74	0.91808	1125.8	0.00088822	107.23	108.05	0.64503	0.95577	2.0002	873.78	-0.083147	200.42	0.15968	0.013224	23.913	0.041819	396.39	434.78	2.0611	0.67248	1.0116	223.57	22.103	11.615	0.012490
231.06	0.92951	1124.6	0.00088923	107.88	108.71	0.64784	0.95537	2.0017	871.40	-0.081398	199.35	0.15928	0.013150	24.204	0.041315	396.45	434.86	2.0594	0.67358	1.0145	223.56	22.021	11.633	0.012525
231.39	0.94094	1123.3	0.00089023	108.52	109.36	0.65063	0.95498	2.0032	869.05	-0.079647	198.29	0.15888	0.013076	24.496	0.040823	396.52	434.93	2.0577	0.67468	1.0174	223.55	21.940	11.650	0.012560
231.71	0.95238	1122.0	0.00089123	109.16	110.01	0.65339	0.95459	2.0047	866.71	-0.077895	197.25	0.15849	0.013004	24.788	0.040342	396.59	435.01	2.0560	0.67577	1.0202	223.54	21.861	11.667	0.012595
232.03	0.96381	1120.8	0.00089222	109.79	110.65	0.65612	0.95421	2.0062	864.39	-0.076142	196.23	0.15810	0.012932	25.080	0.039872	396.65	435.08	2.0543	0.67686	1.0231	223.54	21.782	11.684	0.012630
232.35	0.97524	1119.6	0.00089321	110.42	111.29	0.65883	0.95383	2.0077	862.09	-0.074387	195.22	0.15771	0.012860	25.372	0.039413	396.71	435.15	2.0527	0.67794	1.0260	223.53	21.705	11.701	0.012665
232.66	0.98667	1118.3	0.00089419	111.04	111.92	0.66151	0.95346	2.0093	859.82	-0.072631	194.22	0.15733	0.012790	25.665	0.038964	396.77	435.22	2.0510	0.67901	1.0288	223.52	21.629	11.718	0.012700
232.98	0.99810	1117.1	0.00089517	111.66	112.55	0.66416	0.95309	2.0108	857.56	-0.070873	193.24	0.15695	0.012720	25.957	0.038525	396.83	435.29	2.0494	0.68008	1.0317	223.50	21.554	11.735	0.012735
233.29	1.0095	1115.9	0.00089615	112.27	113.18	0.66679	0.95273	2.0123	855.32	-0.069113	192.27	0.15658	0.012650	26.250	0.038096	396.89	435.35	2.0478	0.68115	1.0345	223.49	21.480	11.752	0.012769
233.59	1.0210	1114.7	0.00089712	112.88	113.80	0.66940	0.95237	2.0139	853.09	-0.067352	191.31	0.15621	0.012582	26.543	0.037675	396.95	435.41	2.0462	0.68221	1.0374	223.48	21.407	11.768	0.012804
233.90	1.0324	1113.5	0.00089808	113.48	114.41	0.67198	0.95202	2.0154	850.89	-0.065588	190.37	0.15584	0.012514	26.836	0.037264	397.01	435.48	2.0447	0.68327	1.0403	223.46	21.335	11.785	0.012838
234.20	1.0438	1112.3	0.00089905	114.08	115.02	0.67455	0.95167	2.0170	848.70	-0.063823	189.44	0.15547	0.012446	27.129	0.036861	397.06	435.54	2.0431	0.68432	1.0431	223.45	21.264	11.801	0.012872
234.50	1.0553	1111.1	0.00090000	114.68	115.63	0.67708	0.95133	2.0186	846.53	-0.062056	188.52	0.15511	0.012380	27.422	0.036467	397.11	435.60	2.0416	0.68537	1.0460	223.43	21.194	11.818	0.012907
234.79	1.0667	1109.9	0.00090096	115.26	116.23	0.67960	0.95099	2.0201	844.37	-0.060288	187.62	0.15475	0.012313	27.716	0.036080	397.17	435.65	2.0401	0.68641	1.0489	223.41	21.125	11.834	0.012941
235.09	1.0781	1108.8	0.00090191	115.85	116.82	0.68210	0.95066	2.0217	842.23	-0.058517	186.72	0.15439	0.012248	28.010	0.035702	397.22	435.71	2.0385	0.68745	1.0517	223.40	21.057	11.850	0.012974
235.38	1.0896	1107.6	0.00090286	116.43	117.41	0.68457	0.95033	2.0233	840.11	-0.056744	185.84	0.15404	0.012183	28.304	0.035331	397.27	435.76	2.0371	0.68848	1.0546	223.38	20.989	11.866	0.013008
235.67	1.1010	1106.4	0.00090380	117.01	118.00	0.68702	0.95000	2.0249	838.00	-0.054968	184.97	0.15369	0.012119	28.598	0.034968	397.32	435.82	2.0356	0.68951	1.0575	223.36	20.923	11.882	0.013042
235.96	1.1124	1105.3	0.00090474	117.58	118.59	0.68945	0.94968	2.0265	835.91	-0.053191	184.11	0.15334	0.012055	28.892	0.034612	397.37	435.87	2.0341	0.69054	1.0603	223.34	20.857	11.898	0.013076
236.24	1.1239	1104.1	0.00090568	118.15	119.17	0.69187	0.94936	2.0281	833.83	-0.051411	183.26	0.15300	0.011991	29.187	0.034262	397.41	435.92	2.0327	0.69156	1.0632	223.32	20.792	11.913	0.013109
236.53	1.1353	1103.0	0.00090662	118.71	119.74	0.69426	0.94905	2.0297	831.76	-0.049629	182.43	0.15266	0.011929	29.481	0.033920	397.46	435.97	2.0312	0.69258	1.0661	223.29	20.728	11.929	0.013143
236.81	1.1467	1101.9	0.00090755	119.27	120.31	0.69663	0.94874	2.0313	829.72	-0.047845	181.60	0.15232	0.011867	29.776	0.033584	397.50	436.02	2.0298	0.69359	1.0690	223.27	20.665	11.945	0.013176
237.09	1.1582	1100.7	0.00090848	119.83	120.88	0.69899	0.94843	2.0329	827.68	-0.046058	180.78	0.15198	0.011805	30.071	0.033254	397.55	436.06	2.0284	0.69460	1.0718	223.25	20.603	11.960	0.013210
237.37	1.1696	1099.6	0.00090940	120.38	121.45	0.70133	0.94813	2.0346	825.66	-0.044269	179.97	0.15165	0.011744	30.367	0.032931	397.59	436.11	2.0270	0.69560	1.0747	223.23	20.541	11.976	0.013243
237.64	1.1810	1098.5	0.00091032	120.93	122.01	0.70364	0.94784	2.0362	823.65	-0.042477	179.18	0.15131	0.011683	30.662	0.032613	397.63	436.15	2.0256	0.69661	1.0776	223.20	20.480	11.991	0.013276
237.91	1.1925	1097.4	0.00091124	121.48	122.57	0.70595	0.94754	2.0378	821.66	-0.040682	178.39	0.15099	0.011623	30.958	0.032302	397.68	436.19	2.0242	0.69760	1.0805	223.18	20.420	12.006	0.013309
238.18	1.2039	1096.3	0.00091216	122.02	123.12	0.70823	0.94725	2.0395	819.67	-0.038885	177.61	0.15066	0.011563	31.254	0.031996	397.72	436.24	2.0228	0.69860	1.0834	223.15	20.360	12.022	0.013342
238.45	1.2153	1095.2	0.00091307	122.56	123.67	0.71049	0.94697	2.0411	817.70	-0.037085	176.84	0.15033	0.011504	31.550	0.031695	397.76	436.28	2.0215	0.69959	1.0863	223.12	20.302	12.037	0.013375
238.72	1.2267	1094.1	0.00091398	123.10	124.22	0.71274	0.94668	2.0428	815.75	-0.035283	176.08	0.15001	0.011445	31.847	0.031400	397.79	436.31	2.0201	0.70058	1.0891	223.10	20.243	12.052	0.013408
238.99	1.2382	1093.0	0.00091489	123.63	124.76	0.71498	0.94640	2.0445	813.80	-0.033477	175.32	0.14969	0.011387	32.143	0.031111	397.83	436.35	2.0188	0.70156	1.0920	223.07	20.186	12.067	0.013441
239.25	1.2496	1091.9	0.00091580	124.16	125.30	0.71719	0.94613	2.0461	811.87	-0.031669	174.58	0.14938	0.011329	32.440	0.030826	397.87	436.39	2.0174	0.70254	1.0949	223.04	20.129	12.082	0.013474
239.51	1.2610	1090.9	0.00091670	124.68	125.84	0.71939	0.94586	2.0478	809.95	-0.029858	173.85	0.14906	0.011272	32.737	0.030546	397.90	436.42	2.0161	0.70352	1.0978	223.01	20.073	12.097	0.013507
239.77	1.2725	1089.8	0.00091760	125.21	126.37	0.72158	0.94559	2.0495	808.04	-0.028044	173.12	0.14875	0.011215	33.035	0.030271	397.94	436.46	2.0148	0.70449	1.1007	222.98	20.017	12.111	0.013540
240.03	1.2839	1088.7	0.00091850	125.73	126.90	0.72375	0.94532	2.0512	806.15	-0.026227	172.40	0.14844	0.011158	33.332	0.030001	397.97	436.49	2.0135	0.70547	1.1036	222.95	19.962	12.126	0.013572
240.29	1.2953	1087.7	0.00091939	126.24	127.43	0.72590	0.94506	2.0529	804.26	-0.024407	171.69	0.14813	0.011102	33.630	0.029735	398.01	436.52	2.0122	0.70643	1.1066	222.92	19.908	12.141	0.013605
240.54	1.3068	1086.6	0.00092028	126.75	127.96	0.72804	0.94480	2.0546	802.38	-0.022584	170.98	0.14782	0.011047	33.928	0.029474	398.04	436.55	2.0110	0.70740	1.1095	222.89	19.854	12.155	0.013638
240.80	1.3182	1085.6	0.00092117	127.26	128.48	0.73017	0.94454	2.0563	800.52	-0.020757	170.29	0.14752	0.010991	34.227	0.029217	398.07	436.58	2.0097	0.70836	1.1124	222.86	19.801	12.170	0.013670
241.05	1.3296	1084.5	0.00092206	127.77	129.00	0.73228	0.94429	2.0580	798.67	-0.018928	169.60	0.14722	0.010937	34.525	0.028964	398.10	436.61	2.0084	0.70932	1.1153	222.83	19.748	12.185	0.013703
241.30	1.3411	1083.5	0.00092295	128.28	129.51	0.73437	0.94404	2.0598	796.82	-0.017095	168.92	0.14692	0.010882	34.824	0.028716	398.13	436.64	2.0072	0.71028	1.1182	222.80	19.696	12.199	0.013735
241.55	1.3525	1082.4	0.00092383	128.78	130.03	0.73645	0.94379	2.0615	794.99	-0.015258	168.24	0.14662	0.010828	35.123	0.028471	398.16	436.67	2.0059	0.71123	1.1212	222.76	19.645	12.213	0.013768
241.80	1.3639	1081.4	0.00092471	129.28	130.54	0.73852	0.94355	2.0632	793.17	-0.013419	167.58	0.14632	0.010775	35.422	0.028231	398.19	436.69	2.0047	0.71218	1.1241	222.73	19.594	12.228	0.013800
242.04	1.3754	1080.4	0.00092559	129.77	131.04	0.74058	0.94331	2.0650	791.36	-0.011576	166.91	0.14603	0.010721	35.722	0.027994	398.22	436.72	2.0035	0.71313	1.1271	222.70	19.543	12.242	0.013832
242.29	1.3868	1079.4	0.00092647	130.27	131.55	0.74262	0.94307	2.0667	789.55	-0.0097298	166.26	0.14574	0.010668	36.022	0.027761	398.24	436.74	2.0023	0.71408	1.1300	222.66	19.493	12.256	0.013865
242.53	1.3982	1078.3	0.00092735	130.76	132.05	0.74465	0.94284	2.0685	787.76	-0.0078799	165.61	0.14545	0.010616	36.322	0.027532	398.27	436.77	2.0010	0.71502	1.1330	222.63	19.444	12.270	0.013897
242.77	1.4097	1077.3	0.00092822	131.24	132.55	0.74666	0.94261	2.0703	785.98	-0.0060266	164.97	0.14516	0.010564	36.622	0.027306	398.30	436.79	1.9998	0.71596	1.1359	222.59	19.395	12.285	0.013929
243.01	1.4211	1076.3	0.00092909	131.73	133.05	0.74866	0.94238	2.0720	784.20	-0.0041696	164.34	0.14487	0.010512	36.923	0.027084	398.32	436.81	1.9986	0.71690	1.1389	222.56	19.346	12.299	0.013962
243.25	1.4325	1075.3	0.00092996	132.21	133.54	0.75065	0.94215	2.0738	782.44	-0.0023091	163.71	0.14458	0.010461	37.224	0.026865	398.34	436.83	1.9975	0.71784	1.1418	222.52	19.298	12.313	0.013994
243.49	1.4440	1074.3	0.00093083	132.69	134.04	0.75263	0.94193	2.0756	780.68	-0.00044480	163.09	0.14430	0.010410	37.525	0.026649	398.37	436.85	1.9963	0.71877	1.1448	222.48	19.250	12.327	0.014026
243.72	1.4554	1073.3	0.00093170	133.17	134.52	0.75460	0.94171	2.0774	778.93	0.0014232	162.47	0.14402	0.010359	37.826	0.026437	398.39	436.87	1.9951	0.71970	1.1478	222.45	19.203	12.341	0.014058
243.96	1.4668	1072.3	0.00093256	133.64	135.01	0.75655	0.94149	2.0792	777.19	0.0032949	161.86	0.14374	0.010308	38.128	0.026228	398.41	436.88	1.9939	0.72063	1.1508	222.41	19.156	12.355	0.014090
244.19	1.4783	1071.3	0.00093342	134.12	135.50	0.75849	0.94127	2.0810	775.46	0.0051705	161.26	0.14346	0.010258	38.430	0.026021	398.43	436.90	1.9928	0.72156	1.1538	222.37	19.110	12.368	0.014122
244.42	1.4897	1070.3	0.00093428	134.59	135.98	0.76042	0.94106	2.0828	773.74	0.0070499	160.66	0.14318	0.010209	38.732	0.025818	398.45	436.92	1.9916	0.72249	1.1567	222.33	19.064	12.382	0.014154
244.65	1.5011	1069.4	0.00093514	135.05	136.46	0.76234	0.94085	2.0846	772.03	0.0089333	160.07	0.14291	0.010159	39.035	0.025618	398.47	436.93	1.9905	0.72341	1.1597	222.30	19.019	12.396	0.014186
244.88	1.5126	1068.4	0.00093600	135.52	136.94	0.76425	0.94064	2.0864	770.32	0.010821	159.48	0.14264	0.010110	39.337	0.025421	398.49	436.94	1.9894	0.72434	1.1628	222.26	18.974	12.410	0.014219
245.11	1.5240	1067.4	0.00093686	135.98	137.41	0.76615	0.94044	2.0883	768.63	0.012712	158.90	0.14236	0.010062	39.641	0.025227	398.51	436.96	1.9882	0.72526	1.1658	222.22	18.929	12.423	0.014251
245.34	1.5354	1066.4	0.00093771	136.44	137.88	0.76803	0.94024	2.0901	766.94	0.014607	158.32	0.14209	0.010013	39.944	0.025035	398.53	436.97	1.9871	0.72617	1.1688	222.18	18.885	12.437	0.014283
245.56	1.5469	1065.5	0.00093857	136.90	138.36	0.76991	0.94004	2.0920	765.26	0.016507	157.75	0.14183	0.0099650	40.248	0.024846	398.55	436.98	1.9860	0.72709	1.1718	222.14	18.841	12.451	0.014315
245.78	1.5583	1064.5	0.00093942	137.36	138.82	0.77177	0.93984	2.0938	763.58	0.018410	157.19	0.14156	0.0099172	40.552	0.024660	398.56	436.99	1.9849	0.72801	1.1748	222.10	18.798	12.464	0.014347
246.01	1.5697	1063.5	0.00094027	137.81	139.29	0.77362	0.93964	2.0957	761.91	0.020318	156.63	0.14129	0.0098697	40.856	0.024476	398.58	437.00	1.9838	0.72892	1.1779	222.05	18.755	12.478	0.014379
246.23	1.5811	1062.6	0.00094112	138.27	139.76	0.77547	0.93945	2.0975	760.26	0.022230	156.07	0.14103	0.0098225	41.160	0.024295	398.60	437.01	1.9827	0.72984	1.1809	222.01	18.712	12.491	0.014411
246.45	1.5926	1061.6	0.00094196	138.72	140.22	0.77730	0.93926	2.0994	758.60	0.024146	155.52	0.14077	0.0097756	41.465	0.024117	398.61	437.02	1.9816	0.73075	1.1840	221.97	18.669	12.505	0.014443
246.67	1.6040	1060.7	0.00094281	139.17	140.68	0.77912	0.93908	2.1013	756.96	0.026067	154.98	0.14050	0.0097290	41.770	0.023940	398.62	437.03	1.9805	0.73166	1.1871	221.93	18.627	12.518	0.014475
246.89	1.6154	1059.7	0.00094365	139.61	141.14	0.78094	0.93889	2.1032	755.32	0.027991	154.43	0.14024	0.0096827	42.076	0.023767	398.64	437.03	1.9794	0.73256	1.1901	221.89	18.586	12.532	0.014506
247.10	1.6269	1058.8	0.00094450	140.06	141.59	0.78274	0.93871	2.1051	753.69	0.029921	153.90	0.13999	0.0096366	42.382	0.023595	398.65	437.04	1.9784	0.73347	1.1932	221.84	18.544	12.545	0.014538
247.32	1.6383	1057.8	0.00094534	140.50	142.05	0.78453	0.93853	2.1070	752.07	0.031854	153.37	0.13973	0.0095909	42.688	0.023426	398.66	437.04	1.9773	0.73438	1.1963	221.80	18.503	12.558	0.014570
247.54	1.6497	1056.9	0.00094618	140.94	142.50	0.78632	0.93835	2.1089	750.45	0.033793	152.84	0.13947	0.0095454	42.994	0.023259	398.68	437.05	1.9762	0.73528	1.1994	221.76	18.463	12.572	0.014602
247.75	1.6612	1055.9	0.00094702	141.38	142.95	0.78809	0.93818	2.1108	748.84	0.035735	152.32	0.13922	0.0095002	43.301	0.023094	398.69	437.05	1.9752	0.73619	1.2025	221.71	18.423	12.585	0.014634
247.96	1.6726	1055.0	0.00094786	141.81	143.40	0.78986	0.93800	2.1127	747.24	0.037683	151.80	0.13897	0.0094553	43.608	0.022932	398.70	437.05	1.9741	0.73709	1.2056	221.67	18.383	12.598	0.014666
248.17	1.6840	1054.1	0.00094870	142.25	143.84	0.79161	0.93783	2.1147	745.64	0.039635	151.28	0.13871	0.0094106	43.915	0.022771	398.71	437.06	1.9731	0.73799	1.2087	221.62	18.343	12.611	0.014698
248.38	1.6955	1053.1	0.00094953	142.68	144.29	0.79336	0.93767	2.1166	744.05	0.041591	150.77	0.13846	0.0093662	44.223	0.022613	398.72	437.06	1.9721	0.73889	1.2118	221.58	18.303	12.624	0.014730
248.59	1.7069	1052.2	0.00095037	143.11	144.73	0.79510	0.93750	2.1186	742.46	0.043553	150.27	0.13822	0.0093220	44.531	0.022456	398.73	437.06	1.9710	0.73979	1.2149	221.53	18.264	12.637	0.014762
248.80	1.7183	1051.3	0.00095120	143.54	145.17	0.79683	0.93734	2.1205	740.88	0.045519	149.77	0.13797	0.0092782	44.839	0.022302	398.74	437.06	1.9700	0.74069	1.2181	221.49	18.226	12.651	0.014794
249.01	1.7298	1050.4	0.00095203	143.96	145.61	0.79855	0.93718	2.1225	739.31	0.047489	149.27	0.13772	0.0092345	45.147	0.022150	398.74	437.06	1.9690	0.74158	1.2212	221.44	18.187	12.664	0.014826
249.22	1.7412	1049.5	0.00095287	144.39	146.05	0.80026	0.93702	2.1244	737.74	0.049465	148.78	0.13748	0.0091912	45.456	0.021999	398.75	437.06	1.9679	0.74248	1.2244	221.40	18.149	12.677	0.014858
249.42	1.7526	1048.6	0.00095370	144.81	146.48	0.80196	0.93686	2.1264	736.18	0.051445	148.29	0.13723	0.0091480	45.766	0.021851	398.76	437.05	1.9669	0.74337	1.2275	221.35	18.111	12.690	0.014890
249.63	1.7641	1047.6	0.00095453	145.23	146.92	0.80366	0.93671	2.1284	734.62	0.053431	147.80	0.13699	0.0091052	46.075	0.021704	398.76	437.05	1.9659	0.74427	1.2307	221.30	18.073	12.703	0.014922
249.83	1.7755	1046.7	0.00095536	145.65	147.35	0.80535	0.93656	2.1304	733.07	0.055421	147.32	0.13675	0.0090625	46.385	0.021559	398.77	437.05	1.9649	0.74516	1.2339	221.26	18.036	12.716	0.014954
250.03	1.7869	1045.8	0.00095618	146.07	147.78	0.80703	0.93641	2.1324	731.53	0.057417	146.84	0.13651	0.0090201	46.695	0.021415	398.78	437.04	1.9639	0.74605	1.2371	221.21	17.999	12.729	0.014986
250.24	1.7984	1044.9	0.00095701	146.49	148.21	0.80870	0.93626	2.1344	729.99	0.059417	146.37	0.13627	0.0089780	47.006	0.021274	398.78	437.04	1.9629	0.74694	1.2403	221.16	17.962	12.741	0.015018
250.44	1.8098	1044.0	0.00095784	146.90	148.64	0.81036	0.93612	2.1364	728.46	0.061422	145.90	0.13603	0.0089360	47.317	0.021134	398.78	437.03	1.9619	0.74784	1.2435	221.11	17.926	12.754	0.015050
250.64	1.8212	1043.1	0.00095866	147.32	149.06	0.81202	0.93598	2.1384	726.93	0.063433	145.43	0.13579	0.0088944	47.628	0.020996	398.79	437.03	1.9609	0.74873	1.2467	221.06	17.889	12.767	0.015082
250.83	1.8327	1042.2	0.00095949	147.73	149.49	0.81366	0.93584	2.1404	725.40	0.065449	144.97	0.13556	0.0088529	47.939	0.020860	398.79	437.02	1.9600	0.74961	1.2499	221.01	17.853	12.780	0.015114
251.03	1.8441	1041.3	0.00096031	148.14	149.91	0.81530	0.93570	2.1425	723.89	0.067469	144.51	0.13532	0.0088117	48.251	0.020725	398.79	437.01	1.9590	0.75050	1.2532	220.97	17.817	12.793	0.015147
251.23	1.8555	1040.4	0.00096114	148.55	150.33	0.81693	0.93557	2.1445	722.37	0.069496	144.06	0.13509	0.0087707	48.564	0.020592	398.80	437.00	1.9580	0.75139	1.2564	220.92	17.782	12.806	0.015179
251.43	1.8670	1039.5	0.00096196	148.95	150.75	0.81856	0.93544	2.1466	720.86	0.071527	143.60	0.13485	0.0087299	48.876	0.020460	398.80	437.00	1.9571	0.75228	1.2597	220.87	17.747	12.818	0.015211
251.62	1.8784	1038.7	0.00096278	149.36	151.17	0.82018	0.93531	2.1486	719.36	0.073564	143.15	0.13462	0.0086893	49.189	0.020330	398.80	436.99	1.9561	0.75316	1.2629	220.82	17.712	12.831	0.015243
251.82	1.8898	1037.8	0.00096360	149.76	151.58	0.82179	0.93518	2.1507	717.86	0.075606	142.71	0.13439	0.0086490	49.502	0.020201	398.80	436.98	1.9551	0.75405	1.2662	220.77	17.677	12.844	0.015275
252.01	1.9013	1036.9	0.00096442	150.16	152.00	0.82339	0.93506	2.1528	716.37	0.077653	142.27	0.13416	0.0086089	49.816	0.020074	398.80	436.97	1.9542	0.75493	1.2695	220.72	17.642	12.856	0.015307
252.20	1.9127	1036.0	0.00096524	150.57	152.41	0.82498	0.93494	2.1548	714.88	0.079706	141.83	0.13393	0.0085690	50.130	0.019948	398.80	436.96	1.9532	0.75582	1.2728	220.66	17.608	12.869	0.015340
252.39	1.9241	1035.1	0.00096606	150.96	152.82	0.82657	0.93482	2.1569	713.39	0.081764	141.39	0.13371	0.0085293	50.445	0.019824	398.80	436.94	1.9523	0.75670	1.2761	220.61	17.574	12.882	0.015372
252.59	1.9355	1034.3	0.00096688	151.36	153.23	0.82815	0.93470	2.1590	711.91	0.083828	140.96	0.13348	0.0084898	50.759	0.019701	398.80	436.93	1.9513	0.75758	1.2794	220.56	17.540	12.894	0.015404
252.78	1.9470	1033.4	0.00096769	151.76	153.64	0.82973	0.93458	2.1611	710.43	0.085898	140.53	0.13325	0.0084505	51.074	0.019579	398.80	436.92	1.9504	0.75846	1.2827	220.51	17.506	12.907	0.015436
252.96	1.9584	1032.5	0.00096851	152.15	154.05	0.83130	0.93447	2.1632	708.96	0.087973	140.10	0.13303	0.0084114	51.390	0.019459	398.80	436.91	1.9495	0.75934	1.2861	220.46	17.473	12.920	0.015469
253.15	1.9698	1031.6	0.00096933	152.55	154.46	0.83286	0.93436	2.1654	707.49	0.090053	139.68	0.13281	0.0083725	51.706	0.019340	398.79	436.89	1.9485	0.76022	1.2894	220.41	17.439	12.932	0.015501
253.34	1.9813	1030.8	0.00097014	152.94	154.86	0.83441	0.93426	2.1675	706.03	0.092140	139.26	0.13258	0.0083339	52.022	0.019223	398.79	436.88	1.9476	0.76110	1.2927	220.35	17.406	12.945	0.015534
253.53	1.9927	1029.9	0.00097096	153.33	155.26	0.83596	0.93415	2.1696	704.57	0.094232	138.84	0.13236	0.0082954	52.338	0.019106	398.79	436.86	1.9467	0.76198	1.2961	220.30	17.373	12.957	0.015566
253.71	2.0041	1029.0	0.00097177	153.72	155.67	0.83750	0.93405	2.1718	703.12	0.096329	138.42	0.13214	0.0082571	52.655	0.018991	398.78	436.85	1.9458	0.76286	1.2995	220.25	17.341	12.970	0.015598
253.90	2.0156	1028.2	0.00097259	154.11	156.07	0.83903	0.93395	2.1739	701.66	0.098433	138.01	0.13192	0.0082190	52.972	0.018878	398.78	436.83	1.9448	0.76374	1.3029	220.20	17.308	12.982	0.015631
254.08	2.0270	1027.3	0.00097340	154.49	156.47	0.84056	0.93386	2.1761	700.22	0.10054	137.60	0.13170	0.0081811	53.290	0.018765	398.78	436.81	1.9439	0.76462	1.3063	220.14	17.276	12.995	0.015663
254.27	2.0384	1026.5	0.00097421	154.88	156.86	0.84209	0.93376	2.1782	698.77	0.10266	137.20	0.13149	0.0081434	53.608	0.018654	398.77	436.79	1.9430	0.76549	1.3097	220.09	17.244	13.007	0.015696
254.45	2.0499	1025.6	0.00097503	155.26	157.26	0.84360	0.93367	2.1804	697.33	0.10478	136.79	0.13127	0.0081059	53.927	0.018544	398.76	436.78	1.9421	0.76637	1.3131	220.03	17.212	13.020	0.015729
254.63	2.0613	1024.8	0.00097584	155.64	157.66	0.84511	0.93358	2.1826	695.90	0.10691	136.39	0.13105	0.0080686	54.245	0.018435	398.76	436.76	1.9412	0.76724	1.3165	219.98	17.181	13.032	0.015761
254.82	2.0727	1023.9	0.00097665	156.03	158.05	0.84661	0.93350	2.1848	694.46	0.10904	135.99	0.13084	0.0080315	54.565	0.018327	398.75	436.74	1.9403	0.76812	1.3199	219.93	17.149	13.045	0.015794
255.00	2.0842	1023.1	0.00097746	156.41	158.44	0.84811	0.93342	2.1870	693.03	0.11118	135.60	0.13062	0.0079945	54.884	0.018220	398.75	436.72	1.9394	0.76899	1.3234	219.87	17.118	13.057	0.015827
255.18	2.0956	1022.2	0.00097827	156.78	158.83	0.84960	0.93334	2.1892	691.61	0.11332	135.21	0.13041	0.0079578	55.204	0.018115	398.74	436.70	1.9385	0.76986	1.3268	219.82	17.087	13.069	0.015859
255.36	2.1070	1021.4	0.00097909	157.16	159.23	0.85109	0.93326	2.1914	690.19	0.11547	134.82	0.13020	0.0079212	55.524	0.018010	398.73	436.68	1.9376	0.77074	1.3303	219.76	17.056	13.082	0.015892
255.54	2.1185	1020.5	0.00097990	157.54	159.61	0.85257	0.93318	2.1937	688.77	0.11763	134.43	0.12999	0.0078848	55.845	0.017907	398.72	436.66	1.9367	0.77161	1.3338	219.71	17.025	13.094	0.015925
255.71	2.1299	1019.7	0.00098071	157.91	160.00	0.85404	0.93311	2.1959	687.35	0.11979	134.04	0.12978	0.0078485	56.166	0.017804	398.71	436.64	1.9358	0.77248	1.3373	219.65	16.995	13.107	0.015958
255.89	2.1413	1018.8	0.00098152	158.29	160.39	0.85551	0.93304	2.1981	685.94	0.12196	133.66	0.12957	0.0078125	56.488	0.017703	398.71	436.61	1.9350	0.77335	1.3408	219.60	16.964	13.119	0.015991
256.07	2.1528	1018.0	0.00098233	158.66	160.77	0.85697	0.93298	2.2004	684.53	0.12414	133.28	0.12936	0.0077766	56.810	0.017603	398.70	436.59	1.9341	0.77422	1.3443	219.54	16.934	13.131	0.016024
256.24	2.1642	1017.2	0.00098313	159.03	161.16	0.85843	0.93291	2.2026	683.13	0.12632	132.90	0.12915	0.0077409	57.132	0.017503	398.69	436.57	1.9332	0.77509	1.3478	219.48	16.904	13.144	0.016057
256.42	2.1756	1016.3	0.00098394	159.40	161.54	0.85988	0.93285	2.2049	681.72	0.12851	132.53	0.12894	0.0077054	57.455	0.017405	398.68	436.54	1.9323	0.77596	1.3514	219.43	16.874	13.156	0.016090
256.59	2.1871	1015.5	0.00098475	159.77	161.92	0.86133	0.93280	2.2072	680.33	0.13071	132.16	0.12874	0.0076700	57.778	0.017308	398.67	436.52	1.9315	0.77682	1.3549	219.37	16.845	13.168	0.016123
256.77	2.1985	1014.7	0.00098556	160.14	162.31	0.86277	0.93274	2.2095	678.93	0.13291	131.78	0.12853	0.0076348	58.101	0.017211	398.65	436.49	1.9306	0.77769	1.3585	219.31	16.815	13.180	0.016156
256.94	2.2099	1013.8	0.00098637	160.51	162.69	0.86420	0.93269	2.2118	677.54	0.13511	131.42	0.12832	0.0075998	58.425	0.017116	398.64	436.47	1.9297	0.77856	1.3620	219.26	16.786	13.193	0.016189
257.11	2.2214	1013.0	0.00098718	160.87	163.06	0.86563	0.93264	2.2141	676.15	0.13733	131.05	0.12812	0.0075649	58.749	0.017021	398.63	436.44	1.9289	0.77942	1.3656	219.20	16.757	13.205	0.016222
257.29	2.2328	1012.2	0.00098798	161.24	163.44	0.86706	0.93260	2.2164	674.76	0.13955	130.69	0.12792	0.0075302	59.074	0.016928	398.62	436.42	1.9280	0.78029	1.3692	219.14	16.728	13.217	0.016256
257.46	2.2442	1011.3	0.00098879	161.60	163.82	0.86848	0.93255	2.2187	673.38	0.14178	130.33	0.12771	0.0074956	59.399	0.016835	398.61	436.39	1.9272	0.78115	1.3728	219.09	16.699	13.229	0.016289
257.63	2.2557	1010.5	0.00098960	161.96	164.19	0.86989	0.93251	2.2210	672.00	0.14401	129.97	0.12751	0.0074613	59.725	0.016743	398.59	436.36	1.9263	0.78202	1.3765	219.03	16.670	13.242	0.016322
257.80	2.2671	1009.7	0.00099041	162.32	164.57	0.87130	0.93248	2.2234	670.62	0.14625	129.61	0.12731	0.0074270	60.051	0.016653	398.58	436.33	1.9255	0.78288	1.3801	218.97	16.642	13.254	0.016356
257.97	2.2785	1008.9	0.00099121	162.68	164.94	0.87270	0.93244	2.2257	669.24	0.14850	129.26	0.12711	0.0073930	60.377	0.016563	398.57	436.31	1.9246	0.78374	1.3837	218.91	16.613	13.266	0.016389
258.14	2.2899	1008.0	0.00099202	163.04	165.31	0.87410	0.93241	2.2281	667.87	0.15075	128.90	0.12691	0.0073591	60.704	0.016473	398.55	436.28	1.9238	0.78460	1.3874	218.85	16.585	13.278	0.016423
258.31	2.3014	1007.2	0.00099283	163.40	165.69	0.87550	0.93238	2.2305	666.50	0.15301	128.55	0.12671	0.0073253	61.031	0.016385	398.54	436.25	1.9229	0.78546	1.3911	218.80	16.557	13.291	0.016456
258.47	2.3128	1006.4	0.00099364	163.76	166.06	0.87689	0.93236	2.2328	665.13	0.15528	128.20	0.12651	0.0072917	61.359	0.016298	398.52	436.22	1.9221	0.78632	1.3947	218.74	16.529	13.303	0.016490
258.64	2.3242	1005.6	0.00099444	164.11	166.43	0.87827	0.93234	2.2352	663.77	0.15755	127.86	0.12632	0.0072582	61.687	0.016211	398.51	436.19	1.9213	0.78718	1.3984	218.68	16.501	13.315	0.016524
258.81	2.3357	1004.8	0.00099525	164.47	166.79	0.87965	0.93232	2.2376	662.41	0.15983	127.51	0.12612	0.0072250	62.016	0.016125	398.49	436.16	1.9204	0.78804	1.4021	218.62	16.473	13.327	0.016557
258.97	2.3471	1004.0	0.00099606	164.82	167.16	0.88103	0.93230	2.2400	661.05	0.16212	127.17	0.12592	0.0071918	62.345	0.016040	398.48	436.12	1.9196	0.78890	1.4059	218.56	16.446	13.339	0.016591
259.14	2.3585	1003.1	0.00099686	165.18	167.53	0.88240	0.93229	2.2425	659.69	0.16442	126.83	0.12573	0.0071588	62.674	0.015956	398.46	436.09	1.9188	0.78976	1.4096	218.50	16.419	13.351	0.016625
259.30	2.3700	1002.3	0.00099767	165.53	167.89	0.88376	0.93228	2.2449	658.34	0.16672	126.49	0.12553	0.0071260	63.004	0.015872	398.44	436.06	1.9179	0.79061	1.4133	218.44	16.391	13.364	0.016659
259.47	2.3814	1001.5	0.00099848	165.88	168.26	0.88512	0.93227	2.2473	656.99	0.16903	126.16	0.12534	0.0070932	63.334	0.015789	398.43	436.03	1.9171	0.79147	1.4171	218.38	16.364	13.376	0.016693
259.63	2.3928	1000.7	0.00099928	166.23	168.62	0.88648	0.93227	2.2498	655.64	0.17134	125.82	0.12515	0.0070607	63.665	0.015707	398.41	435.99	1.9163	0.79232	1.4209	218.32	16.337	13.388	0.016727
259.79	2.4043	999.91	0.0010001	166.58	168.98	0.88783	0.93227	2.2522	654.29	0.17367	125.49	0.12495	0.0070283	63.996	0.015626	398.39	435.96	1.9155	0.79318	1.4247	218.26	16.311	13.400	0.016761
259.96	2.4157	999.10	0.0010009	166.93	169.34	0.88918	0.93227	2.2547	652.95	0.17600	125.16	0.12476	0.0069960	64.327	0.015545	398.37	435.93	1.9147	0.79403	1.4285	218.20	16.284	13.412	0.016795
260.12	2.4271	998.30	0.0010017	167.27	169.70	0.89052	0.93228	2.2572	651.60	0.17833	124.83	0.12457	0.0069639	64.659	0.015466	398.36	435.89	1.9139	0.79489	1.4323	218.14	16.257	13.424	0.016830
260.28	2.4386	997.50	0.0010025	167.62	170.06	0.89186	0.93228	2.2596	650.26	0.18068	124.50	0.12438	0.0069319	64.992	0.015387	398.34	435.86	1.9130	0.79574	1.4361	218.08	16.231	13.436	0.016864
260.44	2.4500	996.69	0.0010033	167.97	170.42	0.89319	0.93230	2.2621	648.93	0.18303	124.18	0.12419	0.0069000	65.325	0.015308	398.32	435.82	1.9122	0.79659	1.4400	218.02	16.205	13.449	0.016898
260.60	2.4614	995.89	0.0010041	168.31	170.78	0.89452	0.93231	2.2646	647.59	0.18539	123.85	0.12400	0.0068683	65.658	0.015230	398.30	435.79	1.9114	0.79744	1.4438	217.96	16.179	13.461	0.016933
260.76	2.4729	995.09	0.0010049	168.65	171.14	0.89585	0.93233	2.2672	646.26	0.18776	123.53	0.12381	0.0068367	65.992	0.015153	398.28	435.75	1.9106	0.79829	1.4477	217.90	16.153	13.473	0.016967
260.92	2.4843	994.29	0.0010057	169.00	171.49	0.89717	0.93235	2.2697	644.93	0.19013	123.21	0.12363	0.0068053	66.326	0.015077	398.26	435.71	1.9098	0.79914	1.4516	217.84	16.127	13.485	0.017002
261.08	2.4957	993.50	0.0010065	169.34	171.85	0.89848	0.93238	2.2722	643.60	0.19251	122.89	0.12344	0.0067740	66.661	0.015001	398.24	435.68	1.9090	0.79999	1.4555	217.78	16.101	13.497	0.017036
261.24	2.5072	992.70	0.0010074	169.68	172.20	0.89980	0.93240	2.2748	642.28	0.19490	122.58	0.12325	0.0067428	66.996	0.014926	398.22	435.64	1.9082	0.80084	1.4594	217.72	16.075	13.509	0.017071
261.39	2.5186	991.90	0.0010082	170.02	172.56	0.90110	0.93243	2.2773	640.96	0.19730	122.26	0.12307	0.0067118	67.332	0.014852	398.19	435.60	1.9074	0.80169	1.4633	217.65	16.050	13.521	0.017106
261.55	2.5300	991.11	0.0010090	170.36	172.91	0.90241	0.93247	2.2799	639.63	0.19970	121.95	0.12288	0.0066809	67.668	0.014778	398.17	435.56	1.9066	0.80254	1.4672	217.59	16.024	13.533	0.017141
261.71	2.5415	990.32	0.0010098	170.70	173.26	0.90371	0.93250	2.2825	638.32	0.20211	121.64	0.12269	0.0066501	68.005	0.014705	398.15	435.52	1.9058	0.80338	1.4712	217.53	15.999	13.545	0.017176
261.86	2.5529	989.52	0.0010106	171.03	173.61	0.90501	0.93254	2.2851	637.00	0.20453	121.33	0.12251	0.0066194	68.342	0.014632	398.13	435.48	1.9050	0.80423	1.4752	217.47	15.974	13.558	0.017211
262.02	2.5643	988.73	0.0010114	171.37	173.96	0.90630	0.93259	2.2877	635.69	0.20696	121.02	0.12233	0.0065889	68.679	0.014560	398.11	435.44	1.9042	0.80507	1.4792	217.41	15.949	13.570	0.017246
262.17	2.5758	987.94	0.0010122	171.70	174.31	0.90759	0.93263	2.2903	634.37	0.20939	120.72	0.12214	0.0065585	69.017	0.014489	398.08	435.40	1.9035	0.80592	1.4832	217.34	15.924	13.582	0.017281
262.33	2.5872	987.15	0.0010130	172.04	174.66	0.90887	0.93268	2.2929	633.06	0.21183	120.41	0.12196	0.0065283	69.356	0.014418	398.06	435.36	1.9027	0.80676	1.4872	217.28	15.899	13.594	0.017316
262.48	2.5986	986.37	0.0010138	172.37	175.01	0.91015	0.93274	2.2956	631.76	0.21428	120.11	0.12178	0.0064981	69.695	0.014348	398.04	435.32	1.9019	0.80761	1.4912	217.22	15.875	13.606	0.017351
262.64	2.6101	985.58	0.0010146	172.71	175.35	0.91143	0.93279	2.2982	630.45	0.21674	119.81	0.12160	0.0064681	70.034	0.014279	398.01	435.28	1.9011	0.80845	1.4953	217.16	15.850	13.618	0.017387
262.79	2.6215	984.79	0.0010154	173.04	175.70	0.91270	0.93285	2.3009	629.15	0.21921	119.51	0.12142	0.0064382	70.374	0.014210	397.99	435.24	1.9003	0.80929	1.4993	217.09	15.826	13.630	0.017422
262.94	2.6329	984.01	0.0010163	173.37	176.05	0.91397	0.93291	2.3035	627.85	0.22168	119.21	0.12124	0.0064084	70.715	0.014141	397.96	435.19	1.8996	0.81014	1.5034	217.03	15.801	13.642	0.017458
263.09	2.6443	983.22	0.0010171	173.70	176.39	0.91524	0.93298	2.3062	626.55	0.22416	118.91	0.12106	0.0063788	71.056	0.014073	397.94	435.15	1.8988	0.81098	1.5075	216.97	15.777	13.654	0.017493
263.24	2.6558	982.44	0.0010179	174.03	176.73	0.91650	0.93305	2.3089	625.25	0.22665	118.62	0.12088	0.0063493	71.397	0.014006	397.91	435.11	1.8980	0.81182	1.5116	216.91	15.753	13.666	0.017529
263.40	2.6672	981.66	0.0010187	174.36	177.08	0.91776	0.93312	2.3116	623.95	0.22915	118.32	0.12070	0.0063199	71.739	0.013939	397.89	435.06	1.8972	0.81266	1.5157	216.84	15.729	13.679	0.017565
263.55	2.6786	980.88	0.0010195	174.69	177.42	0.91901	0.93319	2.3143	622.66	0.23166	118.03	0.12052	0.0062906	72.081	0.013873	397.86	435.02	1.8965	0.81350	1.5199	216.78	15.705	13.691	0.017601
263.70	2.6901	980.10	0.0010203	175.02	177.76	0.92026	0.93327	2.3171	621.37	0.23417	117.74	0.12034	0.0062614	72.424	0.013808	397.83	434.98	1.8957	0.81434	1.5240	216.72	15.681	13.703	0.017637
263.85	2.7015	979.32	0.0010211	175.34	178.10	0.92151	0.93335	2.3198	620.08	0.23670	117.45	0.12017	0.0062324	72.768	0.013742	397.81	434.93	1.8949	0.81518	1.5282	216.65	15.657	13.715	0.017673
263.99	2.7129	978.54	0.0010219	175.67	178.44	0.92275	0.93343	2.3225	618.79	0.23923	117.16	0.11999	0.0062035	73.112	0.013678	397.78	434.89	1.8942	0.81601	1.5324	216.59	15.634	13.727	0.017709
264.14	2.7244	977.76	0.0010227	175.99	178.78	0.92399	0.93352	2.3253	617.51	0.24177	116.88	0.11982	0.0061746	73.456	0.013614	397.75	434.84	1.8934	0.81685	1.5366	216.52	15.610	13.739	0.017745
264.29	2.7358	976.99	0.0010236	176.32	179.12	0.92523	0.93361	2.3281	616.23	0.24431	116.59	0.11964	0.0061459	73.801	0.013550	397.72	434.79	1.8926	0.81769	1.5409	216.46	15.587	13.751	0.017781
264.44	2.7472	976.21	0.0010244	176.64	179.46	0.92646	0.93370	2.3309	614.95	0.24687	116.31	0.11947	0.0061174	74.146	0.013487	397.70	434.75	1.8919	0.81853	1.5451	216.40	15.564	13.763	0.017818
264.59	2.7587	975.44	0.0010252	176.97	179.79	0.92769	0.93380	2.3337	613.67	0.24944	116.02	0.11929	0.0060889	74.492	0.013424	397.67	434.70	1.8911	0.81936	1.5494	216.33	15.540	13.775	0.017854
264.73	2.7701	974.66	0.0010260	177.29	180.13	0.92892	0.93389	2.3365	612.39	0.25201	115.74	0.11912	0.0060605	74.839	0.013362	397.64	434.65	1.8903	0.82020	1.5537	216.27	15.517	13.787	0.017891
264.88	2.7815	973.89	0.0010268	177.61	180.47	0.93014	0.93400	2.3393	611.12	0.25459	115.46	0.11895	0.0060323	75.186	0.013300	397.61	434.60	1.8896	0.82103	1.5580	216.20	15.494	13.800	0.017927
265.03	2.7930	973.12	0.0010276	177.93	180.80	0.93136	0.93410	2.3422	609.84	0.25718	115.19	0.11877	0.0060042	75.533	0.013239	397.58	434.56	1.8888	0.82187	1.5623	216.14	15.471	13.812	0.017964
265.17	2.8044	972.34	0.0010284	178.25	181.14	0.93258	0.93421	2.3450	608.57	0.25978	114.91	0.11860	0.0059762	75.881	0.013178	397.55	434.51	1.8881	0.82270	1.5666	216.07	15.449	13.824	0.018001
265.32	2.8158	971.57	0.0010293	178.57	181.47	0.93379	0.93432	2.3479	607.30	0.26239	114.63	0.11843	0.0059482	76.230	0.013118	397.52	434.46	1.8873	0.82354	1.5710	216.01	15.426	13.836	0.018038
265.46	2.8273	970.80	0.0010301	178.89	181.80	0.93500	0.93443	2.3508	606.04	0.26501	114.36	0.11826	0.0059204	76.579	0.013058	397.49	434.41	1.8866	0.82437	1.5753	215.94	15.403	13.848	0.018075
265.61	2.8387	970.03	0.0010309	179.21	182.13	0.93621	0.93454	2.3536	604.77	0.26763	114.08	0.11809	0.0058927	76.928	0.012999	397.46	434.36	1.8858	0.82521	1.5797	215.88	15.381	13.860	0.018112
265.75	2.8501	969.27	0.0010317	179.52	182.47	0.93741	0.93466	2.3566	603.51	0.27027	113.81	0.11792	0.0058652	77.279	0.012940	397.43	434.31	1.8851	0.82604	1.5841	215.81	15.358	13.872	0.018149
265.89	2.8616	968.50	0.0010325	179.84	182.80	0.93861	0.93478	2.3595	602.25	0.27291	113.54	0.11775	0.0058377	77.629	0.012882	397.40	434.26	1.8843	0.82687	1.5886	215.75	15.336	13.885	0.018187
266.04	2.8730	967.73	0.0010333	180.16	183.13	0.93981	0.93491	2.3624	600.99	0.27556	113.27	0.11758	0.0058103	77.980	0.012824	397.36	434.21	1.8836	0.82770	1.5930	215.68	15.314	13.897	0.018224
266.18	2.8844	966.96	0.0010342	180.47	183.46	0.94101	0.93504	2.3654	599.73	0.27823	113.01	0.11741	0.0057830	78.332	0.012766	397.33	434.15	1.8828	0.82854	1.5975	215.62	15.291	13.909	0.018261
266.32	2.8959	966.20	0.0010350	180.79	183.79	0.94220	0.93516	2.3683	598.48	0.28090	112.74	0.11724	0.0057559	78.684	0.012709	397.30	434.10	1.8821	0.82937	1.6020	215.55	15.269	13.921	0.018299
266.46	2.9073	965.43	0.0010358	181.10	184.11	0.94339	0.93530	2.3713	597.23	0.28358	112.47	0.11707	0.0057288	79.037	0.012652	397.27	434.05	1.8814	0.83020	1.6065	215.49	15.247	13.933	0.018337
266.60	2.9187	964.67	0.0010366	181.42	184.44	0.94457	0.93543	2.3743	595.97	0.28627	112.21	0.11691	0.0057019	79.391	0.012596	397.23	434.00	1.8806	0.83103	1.6110	215.42	15.225	13.945	0.018375
266.75	2.9302	963.90	0.0010374	181.73	184.77	0.94575	0.93557	2.3773	594.73	0.28896	111.94	0.11674	0.0056750	79.745	0.012540	397.20	433.94	1.8799	0.83186	1.6155	215.36	15.204	13.958	0.018413
266.89	2.9416	963.14	0.0010383	182.04	185.09	0.94693	0.93571	2.3803	593.48	0.29167	111.68	0.11657	0.0056483	80.099	0.012485	397.17	433.89	1.8791	0.83269	1.6201	215.29	15.182	13.970	0.018451
267.03	2.9530	962.38	0.0010391	182.35	185.42	0.94811	0.93585	2.3833	592.23	0.29439	111.42	0.11641	0.0056216	80.454	0.012429	397.13	433.84	1.8784	0.83352	1.6247	215.22	15.160	13.982	0.018489
267.17	2.9645	961.62	0.0010399	182.66	185.75	0.94928	0.93600	2.3864	590.99	0.29712	111.16	0.11624	0.0055951	80.810	0.012375	397.10	433.78	1.8777	0.83435	1.6293	215.16	15.138	13.994	0.018527
267.31	2.9759	960.86	0.0010407	182.97	186.07	0.95045	0.93615	2.3894	589.75	0.29985	110.90	0.11608	0.0055686	81.166	0.012320	397.06	433.73	1.8769	0.83518	1.6339	215.09	15.117	14.006	0.018565
267.44	2.9873	960.10	0.0010416	183.28	186.39	0.95162	0.93630	2.3925	588.51	0.30260	110.65	0.11591	0.0055423	81.523	0.012267	397.03	433.67	1.8762	0.83601	1.6386	215.02	15.095	14.019	0.018604
267.58	2.9987	959.34	0.0010424	183.59	186.72	0.95278	0.93645	2.3956	587.27	0.30536	110.39	0.11575	0.0055161	81.880	0.012213	396.99	433.62	1.8755	0.83684	1.6433	214.96	15.074	14.031	0.018642
267.72	3.0102	958.58	0.0010432	183.90	187.04	0.95395	0.93661	2.3987	586.04	0.30812	110.13	0.11559	0.0054899	82.238	0.012160	396.96	433.56	1.8748	0.83767	1.6480	214.89	15.053	14.043	0.018681
267.86	3.0216	957.82	0.0010440	184.21	187.36	0.95511	0.93676	2.4018	584.80	0.31090	109.88	0.11542	0.0054639	82.596	0.012107	396.92	433.50	1.8740	0.83850	1.6527	214.82	15.032	14.055	0.018720
268.00	3.0330	957.06	0.0010449	184.52	187.69	0.95626	0.93692	2.4049	583.57	0.31368	109.63	0.11526	0.0054379	82.955	0.012055	396.89	433.45	1.8733	0.83933	1.6574	214.76	15.010	14.067	0.018759
268.13	3.0445	956.30	0.0010457	184.82	188.01	0.95741	0.93709	2.4081	582.34	0.31648	109.38	0.11510	0.0054121	83.315	0.012003	396.85	433.39	1.8726	0.84016	1.6622	214.69	14.989	14.080	0.018798
268.27	3.0559	955.54	0.0010465	185.13	188.33	0.95857	0.93725	2.4112	581.12	0.31928	109.12	0.11494	0.0053863	83.675	0.011951	396.81	433.33	1.8718	0.84099	1.6670	214.62	14.968	14.092	0.018837
268.41	3.0673	954.79	0.0010474	185.43	188.65	0.95971	0.93742	2.4144	579.89	0.32210	108.88	0.11477	0.0053606	84.036	0.011900	396.77	433.28	1.8711	0.84182	1.6718	214.56	14.948	14.104	0.018876
268.54	3.0788	954.03	0.0010482	185.74	188.97	0.96086	0.93759	2.4176	578.67	0.32493	108.63	0.11461	0.0053351	84.397	0.011849	396.74	433.22	1.8704	0.84265	1.6766	214.49	14.927	14.117	0.018916
268.68	3.0902	953.28	0.0010490	186.04	189.29	0.96200	0.93776	2.4208	577.44	0.32776	108.38	0.11445	0.0053096	84.759	0.011798	396.70	433.16	1.8697	0.84348	1.6814	214.42	14.906	14.129	0.018955
268.81	3.1016	952.52	0.0010498	186.35	189.60	0.96314	0.93794	2.4240	576.23	0.33061	108.13	0.11429	0.0052842	85.122	0.011748	396.66	433.10	1.8690	0.84431	1.6863	214.36	14.885	14.141	0.018995
268.95	3.1131	951.77	0.0010507	186.65	189.92	0.96428	0.93812	2.4273	575.01	0.33346	107.89	0.11413	0.0052589	85.485	0.011698	396.62	433.04	1.8682	0.84513	1.6912	214.29	14.865	14.153	0.019034
269.08	3.1245	951.01	0.0010515	186.95	190.24	0.96541	0.93829	2.4305	573.79	0.33633	107.64	0.11397	0.0052337	85.849	0.011648	396.58	432.98	1.8675	0.84596	1.6961	214.22	14.844	14.166	0.019074
269.22	3.1359	950.26	0.0010523	187.26	190.56	0.96655	0.93848	2.4338	572.58	0.33921	107.40	0.11382	0.0052086	86.213	0.011599	396.55	432.92	1.8668	0.84679	1.7011	214.15	14.824	14.178	0.019114
269.35	3.1474	949.51	0.0010532	187.56	190.87	0.96768	0.93866	2.4371	571.37	0.34209	107.16	0.11366	0.0051836	86.578	0.011550	396.51	432.86	1.8661	0.84762	1.7060	214.08	14.803	14.190	0.019154
269.48	3.1588	948.75	0.0010540	187.86	191.19	0.96880	0.93885	2.4404	570.16	0.34499	106.91	0.11350	0.0051587	86.943	0.011502	396.47	432.80	1.8654	0.84845	1.7110	214.02	14.783	14.203	0.019195
269.62	3.1702	948.00	0.0010548	188.16	191.50	0.96993	0.93903	2.4437	568.95	0.34790	106.67	0.11334	0.0051339	87.309	0.011454	396.43	432.74	1.8647	0.84928	1.7160	213.95	14.762	14.215	0.019235
269.75	3.1817	947.25	0.0010557	188.46	191.82	0.97105	0.93922	2.4471	567.74	0.35082	106.43	0.11318	0.0051091	87.676	0.011406	396.39	432.67	1.8639	0.85011	1.7211	213.88	14.742	14.228	0.019275
269.88	3.1931	946.50	0.0010565	188.76	192.13	0.97217	0.93942	2.4504	566.54	0.35375	106.20	0.11303	0.0050845	88.044	0.011358	396.35	432.61	1.8632	0.85094	1.7261	213.81	14.722	14.240	0.019316
270.01	3.2045	945.75	0.0010574	189.06	192.45	0.97329	0.93961	2.4538	565.34	0.35669	105.96	0.11287	0.0050599	88.412	0.011311	396.30	432.55	1.8625	0.85177	1.7312	213.74	14.702	14.252	0.019357
270.15	3.2160	945.00	0.0010582	189.36	192.76	0.97440	0.93981	2.4572	564.14	0.35964	105.72	0.11271	0.0050354	88.780	0.011264	396.26	432.49	1.8618	0.85260	1.7363	213.68	14.682	14.265	0.019398
270.28	3.2274	944.25	0.0010590	189.65	193.07	0.97552	0.94000	2.4606	562.94	0.36261	105.48	0.11256	0.0050110	89.149	0.011217	396.22	432.42	1.8611	0.85343	1.7415	213.61	14.662	14.277	0.019439
270.41	3.2388	943.50	0.0010599	189.95	193.38	0.97663	0.94020	2.4640	561.74	0.36558	105.25	0.11240	0.0049867	89.519	0.011171	396.18	432.36	1.8604	0.85426	1.7466	213.54	14.642	14.290	0.019480
270.54	3.2503	942.75	0.0010607	190.25	193.70	0.97773	0.94041	2.4675	560.55	0.36857	105.02	0.11225	0.0049625	89.890	0.011125	396.14	432.30	1.8597	0.85509	1.7518	213.47	14.622	14.302	0.019521
270.67	3.2617	942.00	0.0010616	190.54	194.01	0.97884	0.94061	2.4709	559.36	0.37156	104.78	0.11209	0.0049384	90.261	0.011079	396.10	432.23	1.8590	0.85592	1.7571	213.40	14.602	14.315	0.019562
270.80	3.2731	941.25	0.0010624	190.84	194.32	0.97994	0.94082	2.4744	558.17	0.37457	104.55	0.11194	0.0049144	90.633	0.011034	396.05	432.17	1.8583	0.85675	1.7623	213.33	14.583	14.327	0.019604
270.93	3.2846	940.51	0.0010633	191.14	194.63	0.98104	0.94102	2.4779	556.98	0.37759	104.32	0.11179	0.0048904	91.005	0.010988	396.01	432.10	1.8576	0.85758	1.7676	213.26	14.563	14.339	0.019646
271.06	3.2960	939.76	0.0010641	191.43	194.94	0.98214	0.94123	2.4814	555.79	0.38062	104.09	0.11163	0.0048665	91.378	0.010944	395.97	432.04	1.8569	0.85841	1.7729	213.20	14.543	14.352	0.019687
271.19	3.3074	939.01	0.0010650	191.73	195.25	0.98324	0.94144	2.4849	554.61	0.38366	103.86	0.11148	0.0048428	91.752	0.010899	395.92	431.97	1.8562	0.85924	1.7782	213.13	14.524	14.365	0.019729
271.31	3.3189	938.26	0.0010658	192.02	195.56	0.98433	0.94166	2.4885	553.42	0.38672	103.63	0.11133	0.0048191	92.126	0.010855	395.88	431.90	1.8554	0.86007	1.7836	213.06	14.504	14.377	0.019772
271.44	3.3303	937.52	0.0010666	192.31	195.86	0.98542	0.94187	2.4921	552.24	0.38978	103.40	0.11118	0.0047954	92.501	0.010811	395.83	431.84	1.8547	0.86090	1.7889	212.99	14.485	14.390	0.019814
271.57	3.3417	936.77	0.0010675	192.61	196.17	0.98651	0.94209	2.4956	551.06	0.39286	103.18	0.11102	0.0047719	92.877	0.010767	395.79	431.77	1.8540	0.86173	1.7944	212.92	14.466	14.402	0.019856
271.70	3.3531	936.03	0.0010683	192.90	196.48	0.98760	0.94230	2.4992	549.89	0.39595	102.95	0.11087	0.0047485	93.253	0.010723	395.74	431.70	1.8533	0.86257	1.7998	212.85	14.446	14.415	0.019899
271.83	3.3646	935.28	0.0010692	193.19	196.79	0.98868	0.94252	2.5029	548.71	0.39905	102.73	0.11072	0.0047251	93.630	0.010680	395.70	431.63	1.8526	0.86340	1.8053	212.78	14.427	14.427	0.019941
271.95	3.3760	934.53	0.0010701	193.48	197.09	0.98977	0.94274	2.5065	547.54	0.40216	102.50	0.11057	0.0047018	94.008	0.010637	395.65	431.57	1.8519	0.86423	1.8108	212.71	14.408	14.440	0.019984
272.08	3.3874	933.79	0.0010709	193.77	197.40	0.99085	0.94297	2.5102	546.37	0.40528	102.28	0.11042	0.0046786	94.386	0.010595	395.61	431.50	1.8512	0.86506	1.8163	212.64	14.389	14.453	0.020027
272.21	3.3989	933.04	0.0010718	194.06	197.71	0.99193	0.94319	2.5139	545.20	0.40842	102.05	0.11027	0.0046555	94.765	0.010552	395.56	431.43	1.8505	0.86590	1.8218	212.57	14.369	14.465	0.020070
272.33	3.4103	932.30	0.0010726	194.35	198.01	0.99300	0.94342	2.5176	544.03	0.41157	101.83	0.11012	0.0046324	95.145	0.010510	395.51	431.36	1.8498	0.86673	1.8274	212.50	14.350	14.478	0.020114
272.46	3.4217	931.56	0.0010735	194.64	198.32	0.99408	0.94364	2.5213	542.87	0.41473	101.61	0.10997	0.0046095	95.525	0.010468	395.47	431.29	1.8492	0.86757	1.8330	212.43	14.331	14.491	0.020157
272.58	3.4332	930.81	0.0010743	194.93	198.62	0.99515	0.94387	2.5250	541.71	0.41791	101.39	0.10982	0.0045866	95.906	0.010427	395.42	431.22	1.8485	0.86840	1.8387	212.36	14.312	14.503	0.020201
272.71	3.4446	930.07	0.0010752	195.22	198.92	0.99622	0.94410	2.5288	540.55	0.42109	101.17	0.10967	0.0045638	96.288	0.010385	395.37	431.15	1.8478	0.86924	1.8444	212.29	14.294	14.516	0.020244
272.83	3.4560	929.32	0.0010761	195.51	199.23	0.99729	0.94433	2.5326	539.39	0.42429	100.95	0.10953	0.0045410	96.671	0.010344	395.33	431.08	1.8471	0.87007	1.8501	212.22	14.275	14.529	0.020288
272.96	3.4675	928.58	0.0010769	195.80	199.53	0.99836	0.94457	2.5364	538.23	0.42750	100.74	0.10938	0.0045184	97.054	0.010304	395.28	431.00	1.8464	0.87091	1.8558	212.15	14.256	14.541	0.020332
273.08	3.4789	927.84	0.0010778	196.09	199.83	0.99942	0.94480	2.5402	537.07	0.43073	100.52	0.10923	0.0044958	97.438	0.010263	395.23	430.93	1.8457	0.87174	1.8616	212.08	14.237	14.554	0.020376
273.21	3.4903	927.09	0.0010786	196.37	200.14	1.0005	0.94504	2.5441	535.92	0.43396	100.30	0.10908	0.0044733	97.822	0.010223	395.18	430.86	1.8450	0.87258	1.8674	212.01	14.218	14.567	0.020421
273.33	3.5018	926.35	0.0010795	196.66	200.44	1.0015	0.94527	2.5479	534.77	0.43721	100.09	0.10894	0.0044509	98.207	0.010183	395.13	430.79	1.8443	0.87342	1.8732	211.94	14.200	14.580	0.020465
273.45	3.5132	925.61	0.0010804	196.95	200.74	1.0026	0.94551	2.5518	533.62	0.44048	99.872	0.10879	0.0044286	98.593	0.010143	395.08	430.71	1.8436	0.87426	1.8791	211.87	14.181	14.592	0.020510
273.58	3.5246	924.87	0.0010812	197.23	201.04	1.0037	0.94575	2.5557	532.47	0.44375	99.658	0.10864	0.0044063	98.980	0.010103	395.03	430.64	1.8429	0.87510	1.8850	211.80	14.162	14.605	0.020555
273.70	3.5361	924.12	0.0010821	197.52	201.34	1.0047	0.94599	2.5597	531.33	0.44704	99.444	0.10850	0.0043841	99.367	0.010064	394.98	430.57	1.8422	0.87594	1.8909	211.73	14.144	14.618	0.020600
273.82	3.5475	923.38	0.0010830	197.80	201.64	1.0058	0.94623	2.5636	530.18	0.45034	99.232	0.10835	0.0043620	99.755	0.010025	394.93	430.49	1.8415	0.87678	1.8969	211.66	14.125	14.631	0.020645
273.94	3.5589	922.64	0.0010838	198.09	201.94	1.0068	0.94648	2.5676	529.04	0.45366	99.020	0.10821	0.0043400	100.14	0.0099856	394.88	430.42	1.8408	0.87762	1.9029	211.58	14.107	14.644	0.020690
274.07	3.5704	921.90	0.0010847	198.37	202.24	1.0079	0.94672	2.5716	527.90	0.45699	98.809	0.10806	0.0043180	100.53	0.0099469	394.83	430.34	1.8401	0.87846	1.9089	211.51	14.089	14.657	0.020736
274.19	3.5818	921.16	0.0010856	198.65	202.54	1.0089	0.94697	2.5756	526.76	0.46033	98.598	0.10792	0.0042961	100.92	0.0099084	394.78	430.27	1.8395	0.87930	1.9150	211.44	14.070	14.670	0.020782
274.31	3.5932	920.42	0.0010865	198.94	202.84	1.0100	0.94721	2.5797	525.63	0.46369	98.389	0.10777	0.0042743	101.32	0.0098702	394.73	430.19	1.8388	0.88014	1.9211	211.37	14.052	14.683	0.020828
274.43	3.6047	919.67	0.0010873	199.22	203.14	1.0110	0.94746	2.5837	524.49	0.46706	98.180	0.10763	0.0042525	101.71	0.0098322	394.68	430.12	1.8381	0.88099	1.9273	211.30	14.034	14.696	0.020874
274.55	3.6161	918.93	0.0010882	199.50	203.44	1.0120	0.94771	2.5878	523.36	0.47044	97.971	0.10748	0.0042309	102.10	0.0097944	394.62	430.04	1.8374	0.88183	1.9334	211.23	14.015	14.709	0.020920
274.67	3.6275	918.19	0.0010891	199.79	203.74	1.0131	0.94796	2.5919	522.23	0.47384	97.764	0.10734	0.0042093	102.49	0.0097568	394.57	429.96	1.8367	0.88268	1.9396	211.16	13.997	14.722	0.020966
274.79	3.6390	917.45	0.0010900	200.07	204.04	1.0141	0.94821	2.5961	521.10	0.47725	97.557	0.10720	0.0041878	102.89	0.0097194	394.52	429.89	1.8360	0.88352	1.9459	211.08	13.979	14.735	0.021013
274.91	3.6504	916.71	0.0010909	200.35	204.33	1.0152	0.94846	2.6002	519.98	0.48067	97.351	0.10705	0.0041663	103.28	0.0096823	394.47	429.81	1.8353	0.88437	1.9522	211.01	13.961	14.748	0.021060
275.03	3.6618	915.97	0.0010917	200.63	204.63	1.0162	0.94871	2.6044	518.85	0.48411	97.145	0.10691	0.0041449	103.68	0.0096454	394.41	429.73	1.8347	0.88521	1.9585	210.94	13.943	14.761	0.021107
275.15	3.6733	915.23	0.0010926	200.91	204.93	1.0172	0.94897	2.6086	517.73	0.48757	96.940	0.10677	0.0041236	104.07	0.0096086	394.36	429.65	1.8340	0.88606	1.9649	210.87	13.925	14.774	0.021154
275.27	3.6847	914.49	0.0010935	201.19	205.22	1.0183	0.94922	2.6128	516.61	0.49103	96.736	0.10663	0.0041024	104.47	0.0095721	394.30	429.57	1.8333	0.88691	1.9713	210.80	13.907	14.787	0.021201
275.39	3.6961	913.75	0.0010944	201.47	205.52	1.0193	0.94948	2.6171	515.49	0.49452	96.532	0.10649	0.0040812	104.87	0.0095358	394.25	429.49	1.8326	0.88776	1.9777	210.72	13.889	14.800	0.021249
275.51	3.7075	913.01	0.0010953	201.75	205.81	1.0203	0.94973	2.6214	514.37	0.49801	96.329	0.10635	0.0040601	105.27	0.0094997	394.19	429.42	1.8319	0.88861	1.9842	210.65	13.871	14.813	0.021296
275.62	3.7190	912.27	0.0010962	202.03	206.11	1.0213	0.94999	2.6257	513.26	0.50153	96.127	0.10620	0.0040391	105.67	0.0094638	394.14	429.34	1.8312	0.88946	1.9907	210.58	13.853	14.826	0.021344
275.74	3.7304	911.52	0.0010971	202.31	206.40	1.0224	0.95025	2.6300	512.14	0.50505	95.925	0.10606	0.0040182	106.07	0.0094281	394.08	429.26	1.8305	0.89031	1.9972	210.51	13.835	14.840	0.021392
275.86	3.7418	910.78	0.0010980	202.59	206.70	1.0234	0.95051	2.6344	511.03	0.50859	95.724	0.10592	0.0039973	106.47	0.0093926	394.03	429.17	1.8299	0.89117	2.0038	210.44	13.817	14.853	0.021441
275.98	3.7533	910.04	0.0010988	202.87	206.99	1.0244	0.95077	2.6388	509.92	0.51215	95.524	0.10578	0.0039765	106.87	0.0093573	393.97	429.09	1.8292	0.89202	2.0105	210.36	13.800	14.866	0.021489
276.09	3.7647	909.30	0.0010997	203.15	207.29	1.0254	0.95103	2.6432	508.82	0.51572	95.324	0.10564	0.0039557	107.27	0.0093222	393.92	429.01	1.8285	0.89287	2.0171	210.29	13.782	14.879	0.021538
276.21	3.7761	908.56	0.0011006	203.42	207.58	1.0264	0.95129	2.6476	507.71	0.51931	95.125	0.10550	0.0039350	107.67	0.0092872	393.86	428.93	1.8278	0.89373	2.0238	210.22	13.764	14.893	0.021587
276.33	3.7876	907.82	0.0011015	203.70	207.87	1.0275	0.95155	2.6521	506.61	0.52291	94.927	0.10536	0.0039144	108.08	0.0092525	393.80	428.85	1.8271	0.89459	2.0306	210.14	13.746	14.906	0.021636
276.44	3.7990	907.08	0.0011024	203.98	208.17	1.0285	0.95181	2.6566	505.50	0.52653	94.729	0.10523	0.0038939	108.48	0.0092180	393.75	428.76	1.8265	0.89544	2.0374	210.07	13.729	14.919	0.021685
276.56	3.8104	906.34	0.0011033	204.26	208.46	1.0295	0.95208	2.6611	504.40	0.53016	94.531	0.10509	0.0038734	108.89	0.0091836	393.69	428.68	1.8258	0.89630	2.0442	210.00	13.711	14.933	0.021734
276.68	3.8219	905.60	0.0011042	204.53	208.75	1.0305	0.95234	2.6656	503.30	0.53381	94.335	0.10495	0.0038530	109.30	0.0091495	393.63	428.60	1.8251	0.89716	2.0511	209.93	13.694	14.946	0.021784
276.79	3.8333	904.86	0.0011051	204.81	209.04	1.0315	0.95261	2.6702	502.21	0.53747	94.139	0.10481	0.0038327	109.70	0.0091155	393.57	428.51	1.8244	0.89802	2.0580	209.85	13.676	14.959	0.021834
276.91	3.8447	904.12	0.0011061	205.08	209.34	1.0325	0.95287	2.6748	501.11	0.54115	93.943	0.10467	0.0038124	110.11	0.0090817	393.51	428.43	1.8237	0.89888	2.0650	209.78	13.659	14.973	0.021884
277.02	3.8562	903.38	0.0011070	205.36	209.63	1.0335	0.95314	2.6794	500.02	0.54485	93.748	0.10454	0.0037922	110.52	0.0090481	393.45	428.35	1.8231	0.89974	2.0720	209.71	13.641	14.986	0.021934
277.14	3.8676	902.64	0.0011079	205.63	209.92	1.0345	0.95341	2.6841	498.93	0.54856	93.554	0.10440	0.0037720	110.93	0.0090146	393.40	428.26	1.8224	0.90061	2.0791	209.63	13.624	15.000	0.021985
277.25	3.8790	901.90	0.0011088	205.91	210.21	1.0355	0.95367	2.6887	497.84	0.55229	93.360	0.10426	0.0037520	111.34	0.0089814	393.34	428.17	1.8217	0.90147	2.0862	209.56	13.606	15.013	0.022036
277.37	3.8905	901.15	0.0011097	206.18	210.50	1.0365	0.95394	2.6935	496.75	0.55603	93.167	0.10412	0.0037320	111.75	0.0089483	393.28	428.09	1.8210	0.90234	2.0933	209.49	13.589	15.027	0.022087
277.48	3.9019	900.41	0.0011106	206.46	210.79	1.0375	0.95421	2.6982	495.67	0.55979	92.974	0.10399	0.0037120	112.17	0.0089154	393.22	428.00	1.8203	0.90320	2.1005	209.41	13.571	15.040	0.022138
277.59	3.9133	899.67	0.0011115	206.73	211.08	1.0385	0.95448	2.7030	494.58	0.56357	92.782	0.10385	0.0036921	112.58	0.0088827	393.16	427.92	1.8197	0.90407	2.1078	209.34	13.554	15.054	0.022189
277.71	3.9248	898.93	0.0011124	207.00	211.37	1.0395	0.95475	2.7078	493.50	0.56736	92.591	0.10372	0.0036723	112.99	0.0088501	393.09	427.83	1.8190	0.90494	2.1151	209.26	13.537	15.068	0.022241
277.82	3.9362	898.19	0.0011134	207.28	211.66	1.0405	0.95502	2.7126	492.42	0.57117	92.400	0.10358	0.0036526	113.41	0.0088177	393.03	427.74	1.8183	0.90581	2.1224	209.19	13.519	15.081	0.022293
277.93	3.9476	897.45	0.0011143	207.55	211.95	1.0415	0.95529	2.7175	491.34	0.57500	92.209	0.10345	0.0036329	113.82	0.0087855	392.97	427.65	1.8176	0.90668	2.1298	209.12	13.502	15.095	0.022345
278.05	3.9591	896.70	0.0011152	207.82	212.24	1.0425	0.95557	2.7224	490.26	0.57885	92.019	0.10331	0.0036133	114.24	0.0087534	392.91	427.57	1.8169	0.90756	2.1372	209.04	13.485	15.109	0.022397
278.16	3.9705	895.96	0.0011161	208.10	212.53	1.0435	0.95584	2.7273	489.19	0.58271	91.830	0.10318	0.0035937	114.66	0.0087216	392.85	427.48	1.8163	0.90843	2.1447	208.97	13.468	15.122	0.022450
278.27	3.9819	895.22	0.0011170	208.37	212.82	1.0445	0.95611	2.7322	488.11	0.58659	91.641	0.10304	0.0035742	115.08	0.0086898	392.79	427.39	1.8156	0.90930	2.1522	208.89	13.451	15.136	0.022502
278.38	3.9934	894.48	0.0011180	208.64	213.10	1.0455	0.95639	2.7372	487.04	0.59048	91.453	0.10291	0.0035548	115.50	0.0086583	392.72	427.30	1.8149	0.91018	2.1598	208.82	13.433	15.150	0.022555
278.50	4.0048	893.74	0.0011189	208.91	213.39	1.0465	0.95666	2.7423	485.97	0.59440	91.265	0.10277	0.0035354	115.92	0.0086269	392.66	427.21	1.8142	0.91106	2.1674	208.74	13.416	15.164	0.022609
278.61	4.0162	892.99	0.0011198	209.18	213.68	1.0475	0.95694	2.7473	484.90	0.59833	91.078	0.10264	0.0035161	116.34	0.0085956	392.60	427.12	1.8136	0.91194	2.1751	208.67	13.399	15.178	0.022662
278.72	4.0277	892.25	0.0011208	209.45	213.97	1.0485	0.95721	2.7524	483.84	0.60227	90.891	0.10251	0.0034969	116.76	0.0085646	392.53	427.03	1.8129	0.91282	2.1828	208.59	13.382	15.192	0.022716
278.83	4.0391	891.51	0.0011217	209.72	214.26	1.0494	0.95749	2.7575	482.77	0.60624	90.705	0.10237	0.0034777	117.18	0.0085336	392.47	426.94	1.8122	0.91370	2.1906	208.52	13.365	15.205	0.022770
278.94	4.0505	890.76	0.0011226	209.99	214.54	1.0504	0.95776	2.7627	481.71	0.61022	90.519	0.10224	0.0034586	117.61	0.0085029	392.40	426.84	1.8115	0.91458	2.1985	208.45	13.348	15.219	0.022824
279.05	4.0619	890.02	0.0011236	210.27	214.83	1.0514	0.95804	2.7678	480.65	0.61423	90.334	0.10211	0.0034395	118.03	0.0084723	392.34	426.75	1.8108	0.91546	2.2064	208.37	13.331	15.233	0.022878
279.16	4.0734	889.28	0.0011245	210.54	215.12	1.0524	0.95832	2.7731	479.59	0.61825	90.149	0.10198	0.0034205	118.46	0.0084418	392.27	426.66	1.8102	0.91635	2.2143	208.29	13.314	15.247	0.022933
279.27	4.0848	888.53	0.0011255	210.80	215.40	1.0534	0.95860	2.7783	478.53	0.62229	89.965	0.10184	0.0034016	118.88	0.0084115	392.21	426.57	1.8095	0.91724	2.2223	208.22	13.297	15.261	0.022988
279.38	4.0962	887.79	0.0011264	211.07	215.69	1.0543	0.95888	2.7836	477.47	0.62634	89.781	0.10171	0.0033827	119.31	0.0083814	392.14	426.47	1.8088	0.91812	2.2304	208.14	13.280	15.276	0.023043
279.49	4.1077	887.04	0.0011273	211.34	215.97	1.0553	0.95915	2.7889	476.42	0.63042	89.598	0.10158	0.0033639	119.74	0.0083514	392.08	426.38	1.8081	0.91901	2.2385	208.07	13.263	15.290	0.023099
279.60	4.1191	886.30	0.0011283	211.61	216.26	1.0563	0.95943	2.7943	475.36	0.63451	89.415	0.10145	0.0033451	120.17	0.0083215	392.01	426.29	1.8075	0.91991	2.2466	207.99	13.246	15.304	0.023154
279.71	4.1305	885.55	0.0011292	211.88	216.55	1.0573	0.95972	2.7997	474.31	0.63863	89.233	0.10132	0.0033264	120.60	0.0082918	391.94	426.19	1.8068	0.92080	2.2549	207.92	13.229	15.318	0.023210
279.82	4.1420	884.81	0.0011302	212.15	216.83	1.0582	0.96000	2.8051	473.26	0.64276	89.051	0.10119	0.0033078	121.03	0.0082622	391.87	426.10	1.8061	0.92169	2.2631	207.84	13.213	15.332	0.023267
279.93	4.1534	884.06	0.0011311	212.42	217.12	1.0592	0.96028	2.8106	472.21	0.64691	88.870	0.10106	0.0032892	121.47	0.0082328	391.81	426.00	1.8054	0.92259	2.2715	207.77	13.196	15.346	0.023323
280.04	4.1648	883.32	0.0011321	212.69	217.40	1.0602	0.96056	2.8161	471.17	0.65108	88.689	0.10093	0.0032707	121.90	0.0082035	391.74	425.91	1.8047	0.92348	2.2799	207.69	13.179	15.361	0.023380
280.15	4.1763	882.57	0.0011331	212.95	217.69	1.0612	0.96084	2.8216	470.12	0.65527	88.508	0.10079	0.0032523	122.33	0.0081744	391.67	425.81	1.8041	0.92438	2.2883	207.61	13.162	15.375	0.023437
280.26	4.1877	881.82	0.0011340	213.22	217.97	1.0621	0.96112	2.8272	469.08	0.65948	88.328	0.10067	0.0032339	122.77	0.0081454	391.60	425.71	1.8034	0.92528	2.2969	207.54	13.145	15.389	0.023494
280.36	4.1991	881.08	0.0011350	213.49	218.25	1.0631	0.96141	2.8328	468.04	0.66371	88.149	0.10054	0.0032155	123.20	0.0081166	391.53	425.62	1.8027	0.92619	2.3054	207.46	13.128	15.404	0.023552
280.47	4.2106	880.33	0.0011359	213.76	218.54	1.0641	0.96169	2.8385	467.00	0.66796	87.970	0.10041	0.0031972	123.64	0.0080879	391.46	425.52	1.8020	0.92709	2.3141	207.39	13.112	15.418	0.023610
280.58	4.2220	879.58	0.0011369	214.02	218.82	1.0650	0.96198	2.8442	465.96	0.67223	87.791	0.10028	0.0031790	124.08	0.0080593	391.39	425.42	1.8014	0.92799	2.3228	207.31	13.095	15.432	0.023668
280.69	4.2334	878.83	0.0011379	214.29	219.11	1.0660	0.96226	2.8499	464.92	0.67652	87.613	0.10015	0.0031608	124.52	0.0080308	391.32	425.32	1.8007	0.92890	2.3316	207.23	13.078	15.447	0.023726
280.79	4.2449	878.08	0.0011388	214.56	219.39	1.0670	0.96255	2.8557	463.89	0.68083	87.435	0.10002	0.0031427	124.96	0.0080025	391.25	425.22	1.8000	0.92981	2.3404	207.16	13.062	15.461	0.023785
280.90	4.2563	877.33	0.0011398	214.82	219.67	1.0679	0.96283	2.8615	462.85	0.68516	87.258	0.099891	0.0031247	125.40	0.0079744	391.18	425.12	1.7993	0.93072	2.3493	207.08	13.045	15.476	0.023844
281.01	4.2677	876.59	0.0011408	215.09	219.96	1.0689	0.96312	2.8674	461.82	0.68951	87.081	0.099762	0.0031067	125.84	0.0079463	391.11	425.02	1.7986	0.93163	2.3582	207.00	13.028	15.491	0.023903
281.11	4.2792	875.84	0.0011418	215.35	220.24	1.0698	0.96341	2.8733	460.79	0.69389	86.904	0.099634	0.0030888	126.29	0.0079184	391.04	424.92	1.7980	0.93254	2.3673	206.93	13.011	15.505	0.023963
281.22	4.2906	875.09	0.0011427	215.62	220.52	1.0708	0.96369	2.8793	459.76	0.69828	86.728	0.099507	0.0030709	126.73	0.0078906	390.97	424.82	1.7973	0.93346	2.3764	206.85	12.995	15.520	0.024023
281.33	4.3020	874.34	0.0011437	215.88	220.80	1.0718	0.96398	2.8853	458.73	0.70269	86.553	0.099379	0.0030531	127.18	0.0078630	390.90	424.72	1.7966	0.93438	2.3855	206.77	12.978	15.535	0.024083
281.43	4.3135	873.59	0.0011447	216.15	221.09	1.0727	0.96427	2.8913	457.70	0.70713	86.377	0.099252	0.0030353	127.62	0.0078355	390.82	424.62	1.7959	0.93529	2.3948	206.70	12.962	15.549	0.024143
281.54	4.3249	872.83	0.0011457	216.41	221.37	1.0737	0.96456	2.8974	456.68	0.71158	86.203	0.099125	0.0030176	128.07	0.0078081	390.75	424.52	1.7953	0.93622	2.4041	206.62	12.945	15.564	0.024204
281.64	4.3363	872.08	0.0011467	216.68	221.65	1.0746	0.96485	2.9035	455.66	0.71606	86.028	0.098998	0.0029999	128.52	0.0077808	390.68	424.42	1.7946	0.93714	2.4134	206.54	12.928	15.579	0.024265
281.75	4.3478	871.33	0.0011477	216.94	221.93	1.0756	0.96514	2.9096	454.63	0.72056	85.854	0.098871	0.0029823	128.97	0.0077537	390.60	424.32	1.7939	0.93806	2.4229	206.46	12.912	15.594	0.024326
281.85	4.3592	870.58	0.0011487	217.21	222.22	1.0765	0.96543	2.9159	453.61	0.72508	85.680	0.098745	0.0029648	129.42	0.0077267	390.53	424.21	1.7932	0.93899	2.4324	206.39	12.895	15.609	0.024388
281.96	4.3706	869.82	0.0011497	217.47	222.50	1.0775	0.96572	2.9221	452.60	0.72963	85.507	0.098619	0.0029473	129.87	0.0076998	390.46	424.11	1.7925	0.93992	2.4420	206.31	12.879	15.624	0.024450
282.06	4.3821	869.07	0.0011507	217.74	222.78	1.0784	0.96602	2.9284	451.58	0.73419	85.334	0.098493	0.0029299	130.33	0.0076730	390.38	424.00	1.7919	0.94085	2.4516	206.23	12.862	15.639	0.024512
282.17	4.3935	868.32	0.0011517	218.00	223.06	1.0794	0.96631	2.9348	450.56	0.73878	85.162	0.098367	0.0029125	130.78	0.0076464	390.31	423.90	1.7912	0.94178	2.4614	206.15	12.846	15.654	0.024575
282.27	4.4049	867.56	0.0011527	218.26	223.34	1.0803	0.96660	2.9412	449.55	0.74339	84.990	0.098242	0.0028952	131.24	0.0076198	390.23	423.80	1.7905	0.94271	2.4712	206.07	12.829	15.669	0.024638
282.38	4.4163	866.81	0.0011537	218.53	223.62	1.0813	0.96690	2.9476	448.53	0.74803	84.818	0.098117	0.0028779	131.69	0.0075934	390.15	423.69	1.7898	0.94365	2.4811	206.00	12.813	15.684	0.024701
282.48	4.4278	866.05	0.0011547	218.79	223.90	1.0822	0.96719	2.9541	447.52	0.75268	84.647	0.097992	0.0028607	132.15	0.0075671	390.08	423.58	1.7891	0.94458	2.4910	205.92	12.796	15.699	0.024765
282.58	4.4392	865.30	0.0011557	219.05	224.18	1.0832	0.96749	2.9607	446.51	0.75736	84.476	0.097867	0.0028435	132.61	0.0075409	390.00	423.48	1.7884	0.94552	2.5011	205.84	12.780	15.714	0.024829
282.69	4.4506	864.54	0.0011567	219.32	224.47	1.0841	0.96778	2.9672	445.50	0.76207	84.305	0.097742	0.0028264	133.07	0.0075149	389.92	423.37	1.7878	0.94647	2.5112	205.76	12.763	15.729	0.024893
282.79	4.4621	863.78	0.0011577	219.58	224.75	1.0851	0.96808	2.9739	444.49	0.76679	84.135	0.097618	0.0028094	133.53	0.0074889	389.85	423.26	1.7871	0.94741	2.5214	205.68	12.747	15.745	0.024958
282.89	4.4735	863.02	0.0011587	219.84	225.03	1.0860	0.96838	2.9806	443.49	0.77154	83.965	0.097494	0.0027924	133.99	0.0074631	389.77	423.16	1.7864	0.94836	2.5316	205.60	12.730	15.760	0.025023
283.00	4.4849	862.26	0.0011597	220.11	225.31	1.0870	0.96868	2.9873	442.48	0.77632	83.796	0.097370	0.0027755	134.46	0.0074374	389.69	423.05	1.7857	0.94930	2.5420	205.53	12.714	15.775	0.025088
283.10	4.4964	861.51	0.0011608	220.37	225.59	1.0879	0.96898	2.9941	441.48	0.78112	83.627	0.097246	0.0027586	134.92	0.0074118	389.61	422.94	1.7850	0.95025	2.5525	205.45	12.697	15.791	0.025154
283.20	4.5078	860.75	0.0011618	220.63	225.87	1.0889	0.96928	3.0010	440.48	0.78594	83.458	0.097123	0.0027417	135.39	0.0073863	389.53	422.83	1.7843	0.95121	2.5630	205.37	12.681	15.806	0.025220
283.30	4.5192	859.99	0.0011628	220.89	226.15	1.0898	0.96958	3.0079	439.48	0.79078	83.289	0.097000	0.0027249	135.85	0.0073609	389.45	422.72	1.7837	0.95216	2.5736	205.29	12.664	15.822	0.025286
283.40	4.5307	859.23	0.0011638	221.15	226.43	1.0907	0.96988	3.0148	438.48	0.79565	83.121	0.096877	0.0027082	136.32	0.0073357	389.38	422.61	1.7830	0.95312	2.5843	205.21	12.648	15.837	0.025353
283.51	4.5421	858.46	0.0011649	221.42	226.71	1.0917	0.97018	3.0219	437.48	0.80055	82.954	0.096754	0.0026915	136.79	0.0073105	389.30	422.50	1.7823	0.95408	2.5951	205.13	12.631	15.853	0.025420
283.61	4.5535	857.70	0.0011659	221.68	226.99	1.0926	0.97048	3.0289	436.48	0.80547	82.786	0.096631	0.0026749	137.26	0.0072854	389.21	422.39	1.7816	0.95504	2.6060	205.05	12.615	15.868	0.025487
283.71	4.5650	856.94	0.0011669	221.94	227.27	1.0936	0.97079	3.0361	435.48	0.81042	82.619	0.096509	0.0026583	137.73	0.0072605	389.13	422.28	1.7809	0.95600	2.6169	204.97	12.599	15.884	0.025555
283.81	4.5764	856.18	0.0011680	222.20	227.55	1.0945	0.97109	3.0432	434.49	0.81539	82.452	0.096387	0.0026418	138.20	0.0072357	389.05	422.17	1.7802	0.95697	2.6280	204.89	12.582	15.900	0.025623
283.91	4.5878	855.41	0.0011690	222.46	227.83	1.0954	0.97140	3.0505	433.50	0.82038	82.286	0.096265	0.0026254	138.68	0.0072109	388.97	422.05	1.7795	0.95794	2.6391	204.81	12.566	15.916	0.025692
284.01	4.5993	854.65	0.0011701	222.72	228.10	1.0964	0.97170	3.0578	432.50	0.82541	82.120	0.096143	0.0026089	139.15	0.0071863	388.89	421.94	1.7789	0.95891	2.6504	204.73	12.549	15.931	0.025761
284.11	4.6107	853.88	0.0011711	222.98	228.38	1.0973	0.97201	3.0651	431.51	0.83046	81.954	0.096022	0.0025926	139.63	0.0071618	388.81	421.83	1.7782	0.95988	2.6617	204.65	12.533	15.947	0.025830
284.21	4.6221	853.12	0.0011722	223.25	228.66	1.0982	0.97232	3.0726	430.52	0.83553	81.789	0.095900	0.0025763	140.11	0.0071373	388.72	421.71	1.7775	0.96085	2.6731	204.57	12.517	15.963	0.025900
284.31	4.6336	852.35	0.0011732	223.51	228.94	1.0992	0.97263	3.0800	429.53	0.84063	81.623	0.095779	0.0025600	140.59	0.0071130	388.64	421.60	1.7768	0.96183	2.6847	204.49	12.500	15.979	0.025970
284.41	4.6450	851.58	0.0011743	223.77	229.22	1.1001	0.97294	3.0876	428.55	0.84576	81.459	0.095659	0.0025438	141.07	0.0070888	388.56	421.48	1.7761	0.96281	2.6963	204.41	12.484	15.995	0.026040
284.51	4.6564	850.81	0.0011753	224.03	229.50	1.1010	0.97325	3.0952	427.56	0.85091	81.294	0.095538	0.0025276	141.55	0.0070647	388.47	421.37	1.7754	0.96380	2.7080	204.33	12.467	16.011	0.026111
284.61	4.6679	850.04	0.0011764	224.29	229.78	1.1020	0.97356	3.1029	426.57	0.85610	81.130	0.095418	0.0025115	142.03	0.0070406	388.39	421.25	1.7747	0.96478	2.7198	204.25	12.451	16.027	0.026182
284.71	4.6793	849.27	0.0011775	224.55	230.06	1.1029	0.97387	3.1106	425.59	0.86130	80.966	0.095297	0.0024955	142.52	0.0070167	388.30	421.14	1.7740	0.96577	2.7318	204.17	12.435	16.044	0.026254
284.81	4.6907	848.50	0.0011785	224.81	230.34	1.1038	0.97418	3.1184	424.61	0.86654	80.802	0.095177	0.0024795	143.00	0.0069929	388.22	421.02	1.7733	0.96676	2.7438	204.09	12.418	16.060	0.026326
284.91	4.7022	847.73	0.0011796	225.07	230.62	1.1048	0.97450	3.1263	423.63	0.87180	80.639	0.095058	0.0024635	143.49	0.0069692	388.13	420.90	1.7727	0.96775	2.7559	204.01	12.402	16.076	0.026399
285.01	4.7136	846.96	0.0011807	225.33	230.89	1.1057	0.97481	3.1342	422.65	0.87710	80.476	0.094938	0.0024476	143.98	0.0069455	388.05	420.78	1.7720	0.96875	2.7682	203.93	12.385	16.093	0.026472
285.11	4.7250	846.19	0.0011818	225.59	231.17	1.1066	0.97513	3.1422	421.67	0.88242	80.313	0.094819	0.0024317	144.47	0.0069220	387.96	420.67	1.7713	0.96975	2.7805	203.85	12.369	16.109	0.026545
285.21	4.7365	845.41	0.0011829	225.85	231.45	1.1076	0.97545	3.1502	420.69	0.88777	80.151	0.094700	0.0024159	144.96	0.0068986	387.87	420.55	1.7706	0.97075	2.7930	203.77	12.353	16.125	0.026619
285.31	4.7479	844.64	0.0011839	226.11	231.73	1.1085	0.97577	3.1584	419.71	0.89314	79.988	0.094581	0.0024002	145.45	0.0068752	387.78	420.43	1.7699	0.97175	2.8055	203.68	12.336	16.142	0.026693
285.41	4.7593	843.86	0.0011850	226.37	232.01	1.1094	0.97609	3.1666	418.73	0.89855	79.826	0.094462	0.0023845	145.94	0.0068520	387.70	420.31	1.7692	0.97276	2.8182	203.60	12.320	16.158	0.026767
285.50	4.7707	843.09	0.0011861	226.63	232.29	1.1103	0.97641	3.1748	417.76	0.90398	79.665	0.094344	0.0023688	146.44	0.0068288	387.61	420.19	1.7685	0.97377	2.8310	203.52	12.303	16.175	0.026843
285.60	4.7822	842.31	0.0011872	226.89	232.56	1.1113	0.97673	3.1832	416.78	0.90945	79.503	0.094225	0.0023532	146.94	0.0068057	387.52	420.07	1.7678	0.97478	2.8439	203.44	12.287	16.192	0.026918
285.70	4.7936	841.53	0.0011883	227.15	232.84	1.1122	0.97706	3.1916	415.81	0.91494	79.342	0.094107	0.0023376	147.43	0.0067827	387.43	419.94	1.7671	0.97579	2.8569	203.36	12.271	16.208	0.026994
285.80	4.8050	840.75	0.0011894	227.41	233.12	1.1131	0.97738	3.2001	414.84	0.92047	79.182	0.093990	0.0023221	147.93	0.0067598	387.34	419.82	1.7664	0.97681	2.8701	203.28	12.254	16.225	0.027070
285.89	4.8165	839.97	0.0011905	227.67	233.40	1.1141	0.97771	3.2087	413.87	0.92602	79.021	0.093872	0.0023067	148.43	0.0067370	387.25	419.70	1.7657	0.97783	2.8834	203.19	12.238	16.242	0.027147
285.99	4.8279	839.19	0.0011916	227.92	233.68	1.1150	0.97803	3.2173	412.89	0.93161	78.861	0.093755	0.0022913	148.94	0.0067143	387.16	419.58	1.7650	0.97886	2.8967	203.11	12.221	16.259	0.027225
286.09	4.8393	838.41	0.0011927	228.18	233.96	1.1159	0.97836	3.2260	411.93	0.93722	78.701	0.093637	0.0022759	149.44	0.0066917	387.07	419.45	1.7643	0.97988	2.9102	203.03	12.205	16.276	0.027302
286.19	4.8508	837.63	0.0011938	228.44	234.23	1.1168	0.97869	3.2348	410.96	0.94287	78.541	0.093520	0.0022606	149.94	0.0066692	386.98	419.33	1.7636	0.98091	2.9239	202.95	12.189	16.293	0.027381
286.28	4.8622	836.84	0.0011950	228.70	234.51	1.1178	0.97902	3.2437	409.99	0.94855	78.381	0.093404	0.0022453	150.45	0.0066467	386.89	419.20	1.7629	0.98194	2.9376	202.86	12.172	16.310	0.027459
286.38	4.8736	836.06	0.0011961	228.96	234.79	1.1187	0.97936	3.2526	409.02	0.95425	78.222	0.093287	0.0022301	150.96	0.0066244	386.79	419.08	1.7622	0.98298	2.9515	202.78	12.156	16.327	0.027539
286.47	4.8851	835.27	0.0011972	229.22	235.07	1.1196	0.97969	3.2617	408.06	0.95999	78.063	0.093171	0.0022149	151.47	0.0066021	386.70	418.95	1.7615	0.98402	2.9655	202.70	12.139	16.344	0.027618
286.57	4.8965	834.49	0.0011983	229.48	235.35	1.1205	0.98003	3.2708	407.09	0.96577	77.904	0.093055	0.0021998	151.98	0.0065799	386.61	418.83	1.7608	0.98506	2.9797	202.61	12.123	16.362	0.027698
286.67	4.9079	833.70	0.0011995	229.74	235.63	1.1214	0.98036	3.2800	406.13	0.97157	77.745	0.092939	0.0021847	152.49	0.0065578	386.52	418.70	1.7601	0.98611	2.9940	202.53	12.106	16.379	0.027779
286.76	4.9194	832.91	0.0012006	230.00	235.90	1.1224	0.98070	3.2893	405.16	0.97741	77.587	0.092823	0.0021697	153.00	0.0065358	386.42	418.57	1.7594	0.98716	3.0084	202.45	12.090	16.396	0.027860
286.86	4.9308	832.12	0.0012017	230.26	236.18	1.1233	0.98104	3.2986	404.20	0.98328	77.429	0.092708	0.0021547	153.52	0.0065138	386.33	418.44	1.7587	0.98821	3.0230	202.36	12.073	16.414	0.027942
286.95	4.9422	831.33	0.0012029	230.51	236.46	1.1242	0.98138	3.3081	403.24	0.98918	77.271	0.092593	0.0021398	154.04	0.0064920	386.23	418.32	1.7580	0.98926	3.0377	202.28	12.057	16.431	0.028024
287.05	4.9537	830.54	0.0012040	230.77	236.74	1.1251	0.98173	3.3176	402.28	0.99512	77.113	0.092478	0.0021249	154.56	0.0064702	386.14	418.19	1.7572	0.99032	3.0525	202.20	12.041	16.449	0.028107
287.14	4.9651	829.74	0.0012052	231.03	237.02	1.1261	0.98207	3.3273	401.32	1.0011	76.956	0.092363	0.0021101	155.08	0.0064485	386.04	418.06	1.7565	0.99138	3.0675	202.11	12.024	16.467	0.028190
287.24	4.9765	828.95	0.0012063	231.29	237.29	1.1270	0.98242	3.3370	400.36	1.0071	76.799	0.092248	0.0020953	155.60	0.0064268	385.94	417.93	1.7558	0.99245	3.0826	202.03	12.008	16.484	0.028274
287.33	4.9880	828.15	0.0012075	231.55	237.57	1.1279	0.98277	3.3468	399.40	1.0131	76.642	0.092134	0.0020805	156.12	0.0064053	385.85	417.80	1.7551	0.99352	3.0979	201.94	11.991	16.502	0.028358
287.43	4.9994	827.36	0.0012087	231.81	237.85	1.1288	0.98312	3.3567	398.44	1.0192	76.485	0.092020	0.0020659	156.65	0.0063838	385.75	417.66	1.7544	0.99459	3.1133	201.86	11.974	16.520	0.028443
287.52	5.0108	826.56	0.0012098	232.07	238.13	1.1297	0.98347	3.3667	397.48	1.0253	76.328	0.091906	0.0020512	157.17	0.0063625	385.65	417.53	1.7537	0.99566	3.1289	201.78	11.958	16.538	0.028529
287.62	5.0223	825.76	0.0012110	232.33	238.41	1.1307	0.98382	3.3768	396.52	1.0315	76.172	0.091792	0.0020366	157.70	0.0063411	385.55	417.40	1.7530	0.99674	3.1447	201.69	11.941	16.556	0.028615
287.71	5.0337	824.96	0.0012122	232.58	238.69	1.1316	0.98418	3.3870	395.57	1.0376	76.016	0.091679	0.0020220	158.23	0.0063199	385.45	417.27	1.7523	0.99783	3.1606	201.61	11.925	16.574	0.028701
287.81	5.0451	824.16	0.0012134	232.84	238.96	1.1325	0.98454	3.3973	394.61	1.0439	75.860	0.091565	0.0020075	158.76	0.0062988	385.35	417.13	1.7516	0.99891	3.1766	201.52	11.908	16.592	0.028788
287.90	5.0566	823.36	0.0012145	233.10	239.24	1.1334	0.98490	3.4077	393.66	1.0501	75.704	0.091452	0.0019931	159.29	0.0062777	385.25	417.00	1.7508	1.0000	3.1928	201.44	11.892	16.610	0.028876
287.99	5.0680	822.56	0.0012157	233.36	239.52	1.1343	0.98526	3.4182	392.70	1.0564	75.548	0.091340	0.0019787	159.83	0.0062567	385.15	416.86	1.7501	1.0011	3.2092	201.35	11.875	16.629	0.028964
288.09	5.0794	821.75	0.0012169	233.62	239.80	1.1353	0.98562	3.4288	391.75	1.0627	75.393	0.091227	0.0019643	160.37	0.0062357	385.05	416.73	1.7494	1.0022	3.2258	201.27	11.859	16.647	0.029053
288.18	5.0908	820.95	0.0012181	233.88	240.08	1.1362	0.98599	3.4395	390.79	1.0691	75.238	0.091115	0.0019500	160.90	0.0062149	384.95	416.59	1.7487	1.0033	3.2425	201.18	11.842	16.666	0.029142
288.27	5.1023	820.14	0.0012193	234.14	240.36	1.1371	0.98635	3.4503	389.84	1.0755	75.083	0.091002	0.0019357	161.44	0.0061941	384.85	416.45	1.7480	1.0044	3.2594	201.09	11.825	16.684	0.029232
288.37	5.1137	819.33	0.0012205	234.40	240.64	1.1380	0.98672	3.4612	388.89	1.0819	74.928	0.090891	0.0019215	161.99	0.0061734	384.75	416.32	1.7472	1.0055	3.2765	201.01	11.809	16.703	0.029323
288.46	5.1251	818.52	0.0012217	234.65	240.92	1.1389	0.98710	3.4722	387.94	1.0884	74.773	0.090779	0.0019073	162.53	0.0061527	384.65	416.18	1.7465	1.0066	3.2937	200.92	11.792	16.721	0.029414
288.55	5.1366	817.71	0.0012229	234.91	241.19	1.1398	0.98747	3.4833	386.98	1.0949	74.618	0.090668	0.0018931	163.07	0.0061322	384.54	416.04	1.7458	1.0077	3.3112	200.84	11.775	16.740	0.029506
288.64	5.1480	816.90	0.0012241	235.17	241.47	1.1408	0.98785	3.4945	386.03	1.1015	74.464	0.090556	0.0018790	163.62	0.0061117	384.44	415.90	1.7451	1.0089	3.3288	200.75	11.759	16.759	0.029598
288.74	5.1594	816.08	0.0012254	235.43	241.75	1.1417	0.98822	3.5059	385.08	1.1081	74.310	0.090445	0.0018650	164.17	0.0060912	384.33	415.76	1.7443	1.0100	3.3466	200.66	11.742	16.778	0.029691
288.83	5.1709	815.27	0.0012266	235.69	242.03	1.1426	0.98861	3.5173	384.13	1.1147	74.156	0.090335	0.0018510	164.72	0.0060709	384.23	415.62	1.7436	1.0111	3.3646	200.58	11.725	16.797	0.029785
288.92	5.1823	814.45	0.0012278	235.95	242.31	1.1435	0.98899	3.5289	383.18	1.1214	74.002	0.090224	0.0018370	165.27	0.0060506	384.12	415.48	1.7429	1.0122	3.3828	200.49	11.708	16.816	0.029879
289.01	5.1937	813.63	0.0012291	236.21	242.59	1.1444	0.98937	3.5406	382.23	1.1281	73.848	0.090114	0.0018231	165.83	0.0060304	384.02	415.34	1.7421	1.0134	3.4012	200.40	11.692	16.835	0.029974
289.10	5.2052	812.81	0.0012303	236.47	242.87	1.1454	0.98976	3.5524	381.28	1.1349	73.695	0.090004	0.0018093	166.38	0.0060102	383.91	415.19	1.7414	1.0145	3.4198	200.31	11.675	16.854	0.030070
289.20	5.2166	811.99	0.0012315	236.73	243.15	1.1463	0.99015	3.5644	380.33	1.1417	73.542	0.089894	0.0017954	166.94	0.0059901	383.80	415.05	1.7407	1.0157	3.4386	200.23	11.658	16.873	0.030166
289.29	5.2280	811.17	0.0012328	236.99	243.43	1.1472	0.99055	3.5764	379.39	1.1485	73.388	0.089785	0.0017817	167.50	0.0059701	383.70	414.91	1.7400	1.0168	3.4575	200.14	11.641	16.893	0.030263
289.38	5.2395	810.35	0.0012340	237.24	243.71	1.1481	0.99094	3.5886	378.44	1.1554	73.235	0.089675	0.0017679	168.06	0.0059501	383.59	414.76	1.7392	1.0180	3.4768	200.05	11.624	16.912	0.030361
289.47	5.2509	809.52	0.0012353	237.50	243.99	1.1490	0.99134	3.6009	377.49	1.1623	73.082	0.089566	0.0017542	168.63	0.0059302	383.48	414.62	1.7385	1.0191	3.4962	199.96	11.608	16.932	0.030459
289.56	5.2623	808.69	0.0012366	237.76	244.27	1.1500	0.99174	3.6134	376.54	1.1693	72.930	0.089457	0.0017406	169.19	0.0059104	383.37	414.47	1.7377	1.0203	3.5158	199.88	11.591	16.952	0.030559
289.65	5.2738	807.87	0.0012378	238.02	244.55	1.1509	0.99215	3.6260	375.59	1.1763	72.777	0.089349	0.0017270	169.76	0.0058906	383.26	414.32	1.7370	1.0215	3.5357	199.79	11.574	16.971	0.030658
289.74	5.2852	807.04	0.0012391	238.28	244.83	1.1518	0.99255	3.6387	374.64	1.1833	72.624	0.089241	0.0017134	170.33	0.0058709	383.15	414.18	1.7363	1.0226	3.5557	199.70	11.557	16.991	0.030759
289.83	5.2966	806.20	0.0012404	238.54	245.11	1.1527	0.99296	3.6515	373.70	1.1904	72.472	0.089133	0.0016999	170.90	0.0058513	383.04	414.03	1.7355	1.0238	3.5761	199.61	11.540	17.011	0.030860
289.92	5.3081	805.37	0.0012417	238.80	245.39	1.1536	0.99338	3.6645	372.75	1.1976	72.320	0.089025	0.0016865	171.48	0.0058317	382.93	413.88	1.7348	1.0250	3.5966	199.52	11.523	17.031	0.030962
290.01	5.3195	804.54	0.0012430	239.06	245.67	1.1545	0.99379	3.6776	371.80	1.2048	72.168	0.088917	0.0016730	172.05	0.0058122	382.81	413.73	1.7340	1.0262	3.6174	199.43	11.506	17.051	0.031065
290.10	5.3309	803.70	0.0012442	239.32	245.95	1.1555	0.99421	3.6909	370.85	1.2120	72.016	0.088810	0.0016597	172.63	0.0057927	382.70	413.58	1.7333	1.0274	3.6384	199.34	11.489	17.071	0.031168
290.19	5.3424	802.86	0.0012455	239.58	246.23	1.1564	0.99464	3.7043	369.91	1.2193	71.864	0.088703	0.0016463	173.21	0.0057734	382.59	413.43	1.7325	1.0286	3.6597	199.25	11.472	17.092	0.031273
290.28	5.3538	802.02	0.0012468	239.84	246.52	1.1573	0.99506	3.7179	368.96	1.2266	71.712	0.088596	0.0016330	173.79	0.0057540	382.47	413.28	1.7318	1.0298	3.6812	199.16	11.455	17.112	0.031378
290.37	5.3652	801.18	0.0012482	240.10	246.80	1.1582	0.99549	3.7316	368.01	1.2340	71.560	0.088490	0.0016198	174.38	0.0057347	382.36	413.13	1.7310	1.0310	3.7029	199.07	11.438	17.132	0.031483
290.46	5.3767	800.34	0.0012495	240.36	247.08	1.1591	0.99592	3.7454	367.06	1.2415	71.409	0.088384	0.0016066	174.96	0.0057155	382.24	412.97	1.7303	1.0322	3.7250	198.98	11.421	17.153	0.031590
290.55	5.3881	799.49	0.0012508	240.62	247.36	1.1601	0.99636	3.7594	366.11	1.2489	71.257	0.088278	0.0015934	175.55	0.0056964	382.13	412.82	1.7295	1.0334	3.7472	198.89	11.403	17.174	0.031697
290.64	5.3995	798.65	0.0012521	240.88	247.64	1.1610	0.99680	3.7736	365.17	1.2565	71.106	0.088172	0.0015803	176.14	0.0056773	382.01	412.67	1.7288	1.0347	3.7698	198.80	11.386	17.194	0.031806
290.73	5.4110	797.80	0.0012534	241.14	247.92	1.1619	0.99724	3.7879	364.22	1.2640	70.955	0.088067	0.0015673	176.73	0.0056582	381.89	412.51	1.7280	1.0359	3.7926	198.71	11.369	17.215	0.031915
290.82	5.4224	796.95	0.0012548	241.40	248.21	1.1628	0.99769	3.8024	363.27	1.2717	70.804	0.087962	0.0015542	177.33	0.0056393	381.78	412.35	1.7273	1.0371	3.8157	198.62	11.352	17.236	0.032024
290.91	5.4338	796.10	0.0012561	241.66	248.49	1.1638	0.99814	3.8171	362.32	1.2793	70.653	0.087857	0.0015412	177.93	0.0056203	381.66	412.20	1.7265	1.0384	3.8391	198.53	11.335	17.257	0.032135
291.00	5.4452	795.24	0.0012575	241.92	248.77	1.1647	0.99859	3.8319	361.37	1.2871	70.502	0.087752	0.0015283	178.53	0.0056014	381.54	412.04	1.7257	1.0396	3.8628	198.44	11.317	17.279	0.032247
291.08	5.4567	794.39	0.0012588	242.19	249.06	1.1656	0.99905	3.8469	360.42	1.2948	70.351	0.087648	0.0015154	179.13	0.0055826	381.42	411.88	1.7250	1.0408	3.8867	198.35	11.300	17.300	0.032359
291.17	5.4681	793.53	0.0012602	242.45	249.34	1.1665	0.99952	3.8621	359.47	1.3027	70.200	0.087544	0.0015026	179.73	0.0055639	381.30	411.72	1.7242	1.0421	3.9110	198.26	11.283	17.321	0.032473
291.26	5.4795	792.67	0.0012616	242.71	249.62	1.1674	0.99998	3.8774	358.53	1.3106	70.049	0.087441	0.0014897	180.34	0.0055452	381.18	411.56	1.7234	1.0434	3.9355	198.16	11.265	17.343	0.032587
291.35	5.4910	791.81	0.0012629	242.97	249.90	1.1684	1.0005	3.8929	357.58	1.3185	69.899	0.087337	0.0014770	180.95	0.0055265	381.06	411.40	1.7227	1.0446	3.9604	198.07	11.248	17.364	0.032702
291.44	5.5024	790.95	0.0012643	243.23	250.19	1.1693	1.0009	3.9086	356.62	1.3265	69.748	0.087235	0.0014643	181.56	0.0055079	380.93	411.24	1.7219	1.0459	3.9856	197.98	11.230	17.386	0.032818
291.52	5.5138	790.08	0.0012657	243.49	250.47	1.1702	1.0014	3.9245	355.67	1.3346	69.598	0.087132	0.0014516	182.17	0.0054894	380.81	411.08	1.7211	1.0472	4.0111	197.89	11.213	17.408	0.032935
291.61	5.5253	789.21	0.0012671	243.76	250.76	1.1711	1.0019	3.9406	354.72	1.3427	69.447	0.087030	0.0014389	182.79	0.0054709	380.69	410.92	1.7204	1.0485	4.0369	197.79	11.195	17.430	0.033053
291.70	5.5367	788.34	0.0012685	244.02	251.04	1.1721	1.0024	3.9569	353.77	1.3508	69.297	0.086927	0.0014263	183.41	0.0054524	380.56	410.75	1.7196	1.0498	4.0631	197.70	11.178	17.452	0.033172
291.79	5.5481	787.47	0.0012699	244.28	251.33	1.1730	1.0029	3.9734	352.82	1.3590	69.146	0.086826	0.0014138	184.03	0.0054340	380.44	410.59	1.7188	1.0511	4.0896	197.61	11.160	17.474	0.033291
291.87	5.5596	786.60	0.0012713	244.54	251.61	1.1739	1.0034	3.9901	351.87	1.3673	68.996	0.086724	0.0014013	184.65	0.0054157	380.31	410.42	1.7180	1.0524	4.1164	197.51	11.143	17.496	0.033412
291.96	5.5710	785.72	0.0012727	244.81	251.90	1.1748	1.0039	4.0069	350.91	1.3757	68.846	0.086623	0.0013888	185.28	0.0053974	380.19	410.26	1.7172	1.0537	4.1436	197.42	11.125	17.519	0.033534
292.05	5.5824	784.85	0.0012741	245.07	252.18	1.1758	1.0044	4.0240	349.96	1.3841	68.696	0.086523	0.0013764	185.90	0.0053791	380.06	410.09	1.7165	1.0550	4.1712	197.33	11.107	17.541	0.033657
292.14	5.5939	783.97	0.0012756	245.33	252.47	1.1767	1.0049	4.0413	349.00	1.3925	68.546	0.086422	0.0013640	186.53	0.0053609	379.93	409.92	1.7157	1.0563	4.1991	197.23	11.089	17.564	0.033780
292.22	5.6053	783.08	0.0012770	245.60	252.75	1.1776	1.0054	4.0589	348.05	1.4010	68.396	0.086322	0.0013517	187.17	0.0053428	379.80	409.75	1.7149	1.0577	4.2274	197.14	11.072	17.587	0.033905
292.31	5.6167	782.20	0.0012784	245.86	253.04	1.1786	1.0059	4.0766	347.09	1.4096	68.246	0.086223	0.0013394	187.80	0.0053247	379.67	409.58	1.7141	1.0590	4.2561	197.04	11.054	17.610	0.034031
292.39	5.6282	781.31	0.0012799	246.12	253.33	1.1795	1.0065	4.0946	346.13	1.4182	68.096	0.086124	0.0013271	188.44	0.0053066	379.54	409.41	1.7133	1.0603	4.2852	196.95	11.036	17.633	0.034158
292.48	5.6396	780.42	0.0012814	246.39	253.61	1.1804	1.0070	4.1128	345.18	1.4270	67.946	0.086025	0.0013149	189.09	0.0052886	379.41	409.24	1.7125	1.0617	4.3146	196.85	11.018	17.656	0.034286
292.57	5.6510	779.53	0.0012828	246.65	253.90	1.1814	1.0076	4.1312	344.22	1.4357	67.796	0.085926	0.0013028	189.73	0.0052707	379.28	409.07	1.7117	1.0631	4.3445	196.76	11.000	17.679	0.034415
292.65	5.6625	778.64	0.0012843	246.92	254.19	1.1823	1.0081	4.1499	343.26	1.4446	67.646	0.085828	0.0012906	190.38	0.0052528	379.15	408.89	1.7109	1.0644	4.3748	196.66	10.982	17.703	0.034545
292.74	5.6739	777.74	0.0012858	247.18	254.48	1.1832	1.0087	4.1688	342.30	1.4535	67.496	0.085730	0.0012785	191.03	0.0052349	379.02	408.72	1.7101	1.0658	4.4055	196.56	10.964	17.726	0.034677
292.82	5.6853	776.85	0.0012873	247.45	254.76	1.1842	1.0092	4.1880	341.34	1.4624	67.346	0.085633	0.0012665	191.68	0.0052171	378.88	408.54	1.7093	1.0672	4.4366	196.47	10.946	17.750	0.034809
292.91	5.6968	775.94	0.0012888	247.71	255.05	1.1851	1.0098	4.2074	340.37	1.4715	67.196	0.085536	0.0012545	192.33	0.0051993	378.75	408.37	1.7085	1.0686	4.4682	196.37	10.928	17.774	0.034943
292.99	5.7082	775.04	0.0012903	247.98	255.34	1.1860	1.0103	4.2271	339.41	1.4806	67.046	0.085440	0.0012426	192.99	0.0051815	378.61	408.19	1.7077	1.0700	4.5002	196.27	10.910	17.797	0.035078
293.08	5.7196	774.14	0.0012918	248.24	255.63	1.1870	1.0109	4.2470	338.45	1.4897	66.897	0.085344	0.0012306	193.65	0.0051638	378.48	408.01	1.7069	1.0714	4.5327	196.17	10.892	17.822	0.035214
293.16	5.7311	773.23	0.0012933	248.51	255.92	1.1879	1.0115	4.2672	337.48	1.4990	66.747	0.085248	0.0012188	194.32	0.0051462	378.34	407.83	1.7061	1.0728	4.5657	196.08	10.873	17.846	0.035351
293.25	5.7425	772.32	0.0012948	248.77	256.21	1.1888	1.0121	4.2877	336.51	1.5083	66.597	0.085153	0.0012069	194.99	0.0051286	378.20	407.65	1.7053	1.0742	4.5991	195.98	10.855	17.870	0.035490
293.33	5.7539	771.40	0.0012963	249.04	256.50	1.1898	1.0127	4.3085	335.55	1.5177	66.447	0.085058	0.0011952	195.66	0.0051110	378.06	407.47	1.7045	1.0756	4.6330	195.88	10.837	17.895	0.035629
293.42	5.7654	770.49	0.0012979	249.31	256.79	1.1907	1.0133	4.3296	334.58	1.5271	66.297	0.084964	0.0011834	196.33	0.0050935	377.93	407.29	1.7036	1.0771	4.6675	195.78	10.818	17.919	0.035770
293.50	5.7768	769.57	0.0012994	249.57	257.08	1.1917	1.0139	4.3509	333.61	1.5367	66.147	0.084870	0.0011717	197.01	0.0050760	377.79	407.11	1.7028	1.0785	4.7024	195.68	10.800	17.944	0.035913
293.59	5.7882	768.65	0.0013010	249.84	257.37	1.1926	1.0146	4.3726	332.63	1.5463	65.997	0.084776	0.0011600	197.68	0.0050586	377.64	406.92	1.7020	1.0800	4.7379	195.58	10.782	17.969	0.036056
293.67	5.7996	767.72	0.0013026	250.11	257.66	1.1935	1.0152	4.3946	331.66	1.5559	65.848	0.084683	0.0011484	198.37	0.0050412	377.50	406.74	1.7012	1.0814	4.7738	195.48	10.763	17.994	0.036201
293.76	5.8111	766.80	0.0013041	250.38	257.96	1.1945	1.0158	4.4169	330.69	1.5657	65.698	0.084591	0.0011369	199.05	0.0050238	377.36	406.55	1.7003	1.0829	4.8104	195.38	10.744	18.020	0.036347
293.84	5.8225	765.87	0.0013057	250.65	258.25	1.1954	1.0165	4.4395	329.71	1.5755	65.548	0.084499	0.0011253	199.74	0.0050065	377.22	406.37	1.6995	1.0844	4.8475	195.28	10.726	18.045	0.036495
293.92	5.8339	764.93	0.0013073	250.91	258.54	1.1964	1.0171	4.4624	328.73	1.5855	65.398	0.084408	0.0011138	200.43	0.0049892	377.07	406.18	1.6987	1.0859	4.8851	195.18	10.707	18.071	0.036644
294.01	5.8454	764.00	0.0013089	251.18	258.83	1.1973	1.0178	4.4857	327.75	1.5955	65.247	0.084317	0.0011024	201.13	0.0049719	376.93	405.99	1.6978	1.0874	4.9234	195.08	10.688	18.096	0.036795
294.09	5.8568	763.06	0.0013105	251.45	259.13	1.1983	1.0185	4.5094	326.77	1.6055	65.097	0.084227	0.0010910	201.83	0.0049547	376.78	405.80	1.6970	1.0889	4.9622	194.98	10.669	18.122	0.036946
294.18	5.8682	762.12	0.0013121	251.72	259.42	1.1992	1.0191	4.5333	325.79	1.6157	64.947	0.084137	0.0010796	202.53	0.0049375	376.63	405.61	1.6961	1.0904	5.0017	194.88	10.651	18.148	0.037100
294.26	5.8797	761.17	0.0013138	251.99	259.72	1.2002	1.0198	4.5577	324.81	1.6260	64.797	0.084048	0.0010683	203.24	0.0049204	376.49	405.42	1.6953	1.0919	5.0418	194.77	10.632	18.175	0.037255
294.34	5.8911	760.22	0.0013154	252.26	260.01	1.2011	1.0205	4.5824	323.82	1.6363	64.647	0.083959	0.0010570	203.95	0.0049033	376.34	405.22	1.6945	1.0934	5.0825	194.67	10.613	18.201	0.037411
294.42	5.9025	759.27	0.0013170	252.53	260.31	1.2021	1.0212	4.6075	322.84	1.6467	64.496	0.083871	0.0010458	204.66	0.0048862	376.19	405.03	1.6936	1.0950	5.1239	194.57	10.594	18.228	0.037569
294.51	5.9140	758.32	0.0013187	252.80	260.60	1.2030	1.0220	4.6330	321.85	1.6572	64.346	0.083783	0.0010346	205.37	0.0048692	376.04	404.83	1.6927	1.0965	5.1659	194.46	10.575	18.254	0.037728
294.59	5.9254	757.36	0.0013204	253.08	260.90	1.2040	1.0227	4.6590	320.86	1.6678	64.195	0.083697	0.0010234	206.09	0.0048522	375.88	404.63	1.6919	1.0981	5.2086	194.36	10.555	18.281	0.037890
294.67	5.9368	756.40	0.0013220	253.35	261.20	1.2049	1.0234	4.6853	319.87	1.6785	64.045	0.083610	0.0010123	206.82	0.0048352	375.73	404.44	1.6910	1.0997	5.2521	194.25	10.536	18.308	0.038052
294.76	5.9483	755.44	0.0013237	253.62	261.49	1.2059	1.0242	4.7120	318.87	1.6893	63.894	0.083525	0.0010012	207.54	0.0048182	375.58	404.24	1.6902	1.1013	5.2962	194.15	10.517	18.336	0.038217
294.84	5.9597	754.47	0.0013254	253.89	261.79	1.2069	1.0249	4.7392	317.87	1.7002	63.743	0.083440	0.00099019	208.28	0.0048013	375.42	404.04	1.6893	1.1029	5.3411	194.04	10.497	18.363	0.038383
294.92	5.9711	753.50	0.0013271	254.17	262.09	1.2078	1.0257	4.7668	316.88	1.7111	63.592	0.083356	0.00097920	209.01	0.0047845	375.27	403.84	1.6884	1.1045	5.3868	193.94	10.478	18.391	0.038550
295.00	5.9826	752.53	0.0013289	254.44	262.39	1.2088	1.0265	4.7949	315.88	1.7222	63.441	0.083272	0.00096825	209.75	0.0047676	375.11	403.63	1.6876	1.1061	5.4332	193.83	10.459	18.419	0.038720
295.08	5.9940	751.55	0.0013306	254.71	262.69	1.2097	1.0273	4.8234	314.87	1.7334	63.290	0.083189	0.00095735	210.49	0.0047508	374.95	403.43	1.6867	1.1077	5.4804	193.72	10.439	18.447	0.038891
295.17	6.0054	750.57	0.0013323	254.99	262.99	1.2107	1.0281	4.8524	313.87	1.7446	63.139	0.083107	0.00094649	211.24	0.0047340	374.79	403.22	1.6858	1.1094	5.5285	193.62	10.419	18.475	0.039064
295.25	6.0169	749.58	0.0013341	255.26	263.29	1.2117	1.0289	4.8820	312.86	1.7560	62.988	0.083026	0.00093567	211.99	0.0047173	374.63	403.02	1.6849	1.1110	5.5774	193.51	10.400	18.504	0.039239
295.33	6.0283	748.59	0.0013358	255.54	263.59	1.2126	1.0297	4.9120	311.86	1.7674	62.836	0.082945	0.00092489	212.74	0.0047005	374.47	402.81	1.6840	1.1127	5.6271	193.40	10.380	18.532	0.039416
295.41	6.0397	747.60	0.0013376	255.81	263.89	1.2136	1.0306	4.9425	310.84	1.7790	62.685	0.082865	0.00091415	213.50	0.0046838	374.31	402.60	1.6831	1.1144	5.6777	193.29	10.360	18.561	0.039595
295.49	6.0512	746.61	0.0013394	256.09	264.20	1.2146	1.0314	4.9736	309.83	1.7907	62.533	0.082786	0.00090346	214.26	0.0046671	374.15	402.39	1.6823	1.1161	5.7293	193.18	10.340	18.590	0.039775
295.57	6.0626	745.61	0.0013412	256.37	264.50	1.2156	1.0323	5.0052	308.82	1.8025	62.381	0.082708	0.00089281	215.03	0.0046505	373.98	402.18	1.6814	1.1178	5.7817	193.07	10.320	18.620	0.039958
295.66	6.0740	744.60	0.0013430	256.64	264.80	1.2165	1.0332	5.0374	307.80	1.8144	62.229	0.082631	0.00088220	215.80	0.0046339	373.82	401.96	1.6805	1.1195	5.8352	192.96	10.300	18.649	0.040142
295.74	6.0855	743.59	0.0013448	256.92	265.11	1.2175	1.0341	5.0702	306.78	1.8264	62.077	0.082554	0.00087163	216.58	0.0046173	373.65	401.75	1.6795	1.1212	5.8896	192.85	10.280	18.679	0.040329
295.82	6.0969	742.58	0.0013467	257.20	265.41	1.2185	1.0350	5.1036	305.76	1.8385	61.924	0.082479	0.00086110	217.36	0.0046007	373.48	401.53	1.6786	1.1230	5.9450	192.74	10.260	18.709	0.040518
295.90	6.1083	741.57	0.0013485	257.48	265.72	1.2195	1.0359	5.1376	304.73	1.8507	61.772	0.082404	0.00085062	218.14	0.0045842	373.31	401.32	1.6777	1.1247	6.0014	192.63	10.240	18.739	0.040709
295.98	6.1198	740.55	0.0013504	257.76	266.02	1.2205	1.0369	5.1722	303.70	1.8630	61.619	0.082330	0.00084018	218.93	0.0045676	373.14	401.10	1.6768	1.1265	6.0589	192.52	10.219	18.770	0.040902
296.06	6.1312	739.52	0.0013522	258.04	266.33	1.2214	1.0378	5.2074	302.67	1.8755	61.466	0.082258	0.00082978	219.72	0.0045512	372.97	400.88	1.6759	1.1283	6.1175	192.40	10.199	18.800	0.041097
296.14	6.1426	738.49	0.0013541	258.32	266.64	1.2224	1.0388	5.2434	301.64	1.8881	61.313	0.082186	0.00081942	220.52	0.0045347	372.80	400.65	1.6750	1.1301	6.1772	192.29	10.178	18.831	0.041295
296.22	6.1540	737.46	0.0013560	258.60	266.95	1.2234	1.0398	5.2800	300.60	1.9008	61.160	0.082115	0.00080911	221.33	0.0045182	372.63	400.43	1.6740	1.1319	6.2381	192.17	10.158	18.862	0.041494
296.30	6.1655	736.42	0.0013579	258.88	267.26	1.2244	1.0408	5.3174	299.57	1.9136	61.006	0.082046	0.00079884	222.13	0.0045018	372.45	400.21	1.6731	1.1337	6.3002	192.06	10.137	18.894	0.041697
296.38	6.1769	735.38	0.0013598	259.17	267.57	1.2254	1.0418	5.3554	298.53	1.9266	60.853	0.081977	0.00078861	222.95	0.0044854	372.27	399.98	1.6722	1.1356	6.3635	191.94	10.116	18.926	0.041901
296.46	6.1883	734.33	0.0013618	259.45	267.88	1.2264	1.0429	5.3943	297.48	1.9397	60.699	0.081909	0.00077842	223.76	0.0044690	372.10	399.75	1.6712	1.1374	6.4281	191.83	10.095	18.957	0.042109
296.54	6.1998	733.28	0.0013637	259.73	268.19	1.2274	1.0439	5.4339	296.43	1.9529	60.544	0.081843	0.00076828	224.59	0.0044526	371.92	399.52	1.6703	1.1393	6.4939	191.71	10.074	18.990	0.042318
296.62	6.2112	732.22	0.0013657	260.02	268.50	1.2284	1.0450	5.4743	295.39	1.9662	60.390	0.081778	0.00075817	225.42	0.0044363	371.74	399.29	1.6693	1.1412	6.5611	191.59	10.053	19.022	0.042530
296.70	6.2226	731.16	0.0013677	260.30	268.81	1.2294	1.0461	5.5155	294.33	1.9797	60.235	0.081714	0.00074811	226.25	0.0044199	371.56	399.06	1.6684	1.1431	6.6297	191.47	10.032	19.055	0.042745
296.78	6.2341	730.10	0.0013697	260.59	269.13	1.2304	1.0472	5.5576	293.28	1.9933	60.080	0.081651	0.00073810	227.09	0.0044036	371.37	398.83	1.6674	1.1450	6.6997	191.35	10.011	19.088	0.042963
296.86	6.2455	729.02	0.0013717	260.88	269.44	1.2314	1.0484	5.6006	292.22	2.0071	59.925	0.081590	0.00072812	227.93	0.0043873	371.19	398.59	1.6665	1.1470	6.7712	191.23	9.9895	19.121	0.043183
296.94	6.2569	727.95	0.0013737	261.16	269.76	1.2324	1.0495	5.6445	291.16	2.0210	59.769	0.081530	0.00071819	228.78	0.0043710	371.00	398.35	1.6655	1.1489	6.8442	191.11	9.9681	19.155	0.043406
297.02	6.2684	726.87	0.0013758	261.45	270.08	1.2334	1.0507	5.6893	290.09	2.0350	59.614	0.081471	0.00070830	229.64	0.0043547	370.82	398.11	1.6645	1.1509	6.9188	190.99	9.9466	19.189	0.043632
297.10	6.2798	725.78	0.0013778	261.74	270.39	1.2344	1.0519	5.7351	289.02	2.0492	59.458	0.081414	0.00069846	230.50	0.0043385	370.63	397.87	1.6635	1.1529	6.9949	190.87	9.9250	19.223	0.043861
297.17	6.2912	724.68	0.0013799	262.03	270.71	1.2355	1.0531	5.7819	287.95	2.0635	59.301	0.081358	0.00068866	231.36	0.0043222	370.44	397.63	1.6625	1.1549	7.0728	190.74	9.9032	19.257	0.044093
297.25	6.3027	723.59	0.0013820	262.32	271.03	1.2365	1.0543	5.8297	286.88	2.0780	59.144	0.081303	0.00067890	232.24	0.0043060	370.25	397.38	1.6616	1.1569	7.1523	190.62	9.8814	19.292	0.044328
297.33	6.3141	722.48	0.0013841	262.61	271.35	1.2375	1.0556	5.8786	285.80	2.0926	58.987	0.081250	0.00066918	233.11	0.0042898	370.05	397.14	1.6606	1.1590	7.2336	190.49	9.8594	19.327	0.044566
297.41	6.3255	721.37	0.0013862	262.90	271.67	1.2385	1.0569	5.9286	284.72	2.1074	58.830	0.081199	0.00065951	234.00	0.0042735	369.86	396.89	1.6596	1.1611	7.3168	190.37	9.8374	19.362	0.044807
297.49	6.3370	720.26	0.0013884	263.20	272.00	1.2396	1.0582	5.9798	283.64	2.1224	58.672	0.081149	0.00064988	234.89	0.0042573	369.66	396.64	1.6586	1.1631	7.4018	190.24	9.8152	19.398	0.045052
297.57	6.3484	719.13	0.0013906	263.49	272.32	1.2406	1.0595	6.0321	282.55	2.1375	58.514	0.081101	0.00064029	235.79	0.0042412	369.46	396.39	1.6576	1.1653	7.4888	190.11	9.7930	19.434	0.045300
297.64	6.3598	718.01	0.0013927	263.79	272.64	1.2416	1.0609	6.0856	281.46	2.1528	58.356	0.081055	0.00063075	236.69	0.0042250	369.26	396.13	1.6565	1.1674	7.5779	189.98	9.7706	19.471	0.045552
297.72	6.3713	716.87	0.0013950	264.08	272.97	1.2427	1.0623	6.1405	280.36	2.1682	58.197	0.081010	0.00062125	237.60	0.0042088	369.06	395.88	1.6555	1.1696	7.6690	189.85	9.7481	19.507	0.045807
297.80	6.3827	715.73	0.0013972	264.38	273.30	1.2437	1.0637	6.1966	279.26	2.1839	58.037	0.080967	0.00061180	238.51	0.0041926	368.86	395.62	1.6545	1.1717	7.7623	189.72	9.7255	19.544	0.046066
297.88	6.3941	714.58	0.0013994	264.68	273.62	1.2448	1.0651	6.2541	278.16	2.1997	57.878	0.080926	0.00060239	239.44	0.0041765	368.65	395.36	1.6535	1.1739	7.8579	189.59	9.7027	19.582	0.046328
297.96	6.4056	713.43	0.0014017	264.97	273.95	1.2458	1.0666	6.3130	277.05	2.2156	57.717	0.080887	0.00059302	240.37	0.0041603	368.45	395.10	1.6524	1.1762	7.9558	189.46	9.6799	19.620	0.046594
298.03	6.4170	712.27	0.0014040	265.27	274.28	1.2469	1.0681	6.3734	275.94	2.2318	57.557	0.080850	0.00058370	241.30	0.0041441	368.24	394.83	1.6514	1.1784	8.0561	189.32	9.6569	19.658	0.046865
298.11	6.4284	711.10	0.0014063	265.57	274.62	1.2479	1.0696	6.4353	274.83	2.2481	57.396	0.080815	0.00057442	242.25	0.0041280	368.03	394.57	1.6503	1.1807	8.1590	189.19	9.6338	19.696	0.047139
298.19	6.4399	709.92	0.0014086	265.88	274.95	1.2490	1.0712	6.4987	273.71	2.2646	57.234	0.080782	0.00056518	243.20	0.0041118	367.82	394.30	1.6493	1.1830	8.2644	189.05	9.6106	19.735	0.047418
298.27	6.4513	708.74	0.0014109	266.18	275.28	1.2501	1.0728	6.5638	272.59	2.2813	57.072	0.080752	0.00055599	244.16	0.0040957	367.60	394.03	1.6482	1.1853	8.3726	188.91	9.5872	19.775	0.047701
298.34	6.4627	707.55	0.0014133	266.48	275.62	1.2511	1.0744	6.6306	271.47	2.2983	56.910	0.080723	0.00054685	245.13	0.0040795	367.39	393.75	1.6471	1.1877	8.4835	188.77	9.5637	19.815	0.047988
298.42	6.4742	706.36	0.0014157	266.79	275.95	1.2522	1.0760	6.6992	270.34	2.3154	56.747	0.080697	0.00053775	246.10	0.0040634	367.17	393.48	1.6460	1.1900	8.5974	188.63	9.5401	19.855	0.048280
298.50	6.4856	705.15	0.0014181	267.10	276.29	1.2533	1.0777	6.7695	269.20	2.3327	56.584	0.080673	0.00052869	247.08	0.0040472	366.95	393.20	1.6449	1.1924	8.7143	188.49	9.5163	19.895	0.048576
298.57	6.4970	703.94	0.0014206	267.40	276.63	1.2544	1.0794	6.8418	268.07	2.3502	56.419	0.080652	0.00051968	248.07	0.0040311	366.73	392.92	1.6439	1.1949	8.8344	188.35	9.4924	19.937	0.048877
298.65	6.5084	702.72	0.0014231	267.71	276.97	1.2555	1.0812	6.9161	266.92	2.3679	56.255	0.080633	0.00051072	249.07	0.0040149	366.50	392.64	1.6427	1.1974	8.9577	188.20	9.4683	19.978	0.049184
298.73	6.5199	701.49	0.0014255	268.02	277.32	1.2566	1.0830	6.9924	265.78	2.3858	56.090	0.080617	0.00050180	250.08	0.0039987	366.28	392.35	1.6416	1.1998	9.0845	188.06	9.4441	20.020	0.049495
298.80	6.5313	700.25	0.0014281	268.33	277.66	1.2577	1.0848	7.0709	264.63	2.4040	55.924	0.080604	0.00049292	251.09	0.0039826	366.05	392.06	1.6405	1.2024	9.2149	187.91	9.4198	20.062	0.049812
298.88	6.5427	699.00	0.0014306	268.65	278.01	1.2588	1.0867	7.1516	263.47	2.4224	55.758	0.080594	0.00048409	252.12	0.0039664	365.82	391.77	1.6394	1.2049	9.3489	187.76	9.3953	20.105	0.050134
298.95	6.5542	697.75	0.0014332	268.96	278.35	1.2599	1.0886	7.2346	262.31	2.4410	55.591	0.080586	0.00047531	253.15	0.0039502	365.59	391.48	1.6383	1.2075	9.4869	187.61	9.3706	20.149	0.050461
299.03	6.5656	696.48	0.0014358	269.28	278.70	1.2610	1.0905	7.3201	261.15	2.4598	55.423	0.080581	0.00046657	254.20	0.0039340	365.35	391.18	1.6371	1.2102	9.6289	187.46	9.3458	20.193	0.050795
299.11	6.5770	695.21	0.0014384	269.59	279.05	1.2621	1.0925	7.4081	259.98	2.4789	55.255	0.080580	0.00045788	255.25	0.0039178	365.11	390.88	1.6360	1.2128	9.7751	187.31	9.3208	20.237	0.051134
299.18	6.5885	693.92	0.0014411	269.91	279.41	1.2632	1.0945	7.4988	258.81	2.4982	55.086	0.080581	0.00044924	256.31	0.0039015	364.87	390.58	1.6348	1.2155	9.9258	187.15	9.2956	20.282	0.051480
299.26	6.5999	692.63	0.0014438	270.23	279.76	1.2644	1.0966	7.5922	257.63	2.5177	54.916	0.080586	0.00044064	257.38	0.0038853	364.63	390.27	1.6336	1.2183	10.081	186.99	9.2703	20.328	0.051832
299.33	6.6113	691.33	0.0014465	270.55	280.12	1.2655	1.0987	7.6885	256.44	2.5375	54.745	0.080595	0.00043209	258.46	0.0038690	364.39	389.97	1.6325	1.2210	10.241	186.83	9.2448	20.374	0.052190
299.41	6.6228	690.01	0.0014492	270.88	280.48	1.2666	1.1009	7.7879	255.25	2.5576	54.574	0.080607	0.00042358	259.56	0.0038527	364.14	389.66	1.6313	1.2238	10.406	186.67	9.2191	20.421	0.052555
299.48	6.6342	688.69	0.0014520	271.20	280.84	1.2678	1.1031	7.8904	254.06	2.5779	54.402	0.080622	0.00041513	260.66	0.0038364	363.89	389.34	1.6301	1.2267	10.577	186.51	9.1932	20.468	0.052928
299.56	6.6456	687.35	0.0014549	271.53	281.20	1.2689	1.1054	7.9963	252.86	2.5985	54.229	0.080642	0.00040672	261.77	0.0038201	363.64	389.02	1.6289	1.2296	10.753	186.35	9.1671	20.516	0.053308
299.63	6.6571	686.01	0.0014577	271.86	281.56	1.2701	1.1077	8.1056	251.66	2.6194	54.056	0.080665	0.00039836	262.90	0.0038037	363.38	388.70	1.6277	1.2325	10.935	186.18	9.1409	20.564	0.053695
299.71	6.6685	684.65	0.0014606	272.19	281.93	1.2713	1.1101	8.2186	250.45	2.6405	53.881	0.080693	0.00039005	264.04	0.0037874	363.12	388.38	1.6264	1.2355	11.123	186.01	9.1144	20.613	0.054090
299.78	6.6799	683.28	0.0014635	272.52	282.30	1.2724	1.1125	8.3355	249.23	2.6620	53.706	0.080724	0.00038178	265.18	0.0037710	362.86	388.05	1.6252	1.2386	11.317	185.84	9.0878	20.663	0.054494
299.86	6.6914	681.90	0.0014665	272.85	282.67	1.2736	1.1150	8.4564	248.01	2.6837	53.530	0.080760	0.00037356	266.34	0.0037545	362.60	387.72	1.6240	1.2416	11.519	185.66	9.0609	20.714	0.054906
299.93	6.7028	680.50	0.0014695	273.19	283.04	1.2748	1.1176	8.5815	246.78	2.7057	53.353	0.080801	0.00036540	267.52	0.0037381	362.33	387.38	1.6227	1.2448	11.727	185.49	9.0338	20.765	0.055327
300.01	6.7142	679.10	0.0014725	273.53	283.42	1.2760	1.1202	8.7111	245.54	2.7281	53.174	0.080846	0.00035728	268.70	0.0037216	362.06	387.05	1.6214	1.2480	11.943	185.31	9.0065	20.817	0.055757
300.08	6.7257	677.68	0.0014756	273.87	283.79	1.2772	1.1229	8.8455	244.30	2.7508	52.995	0.080896	0.00034921	269.90	0.0037050	361.78	386.70	1.6201	1.2512	12.167	185.13	8.9790	20.869	0.056197
300.16	6.7371	676.24	0.0014788	274.21	284.17	1.2784	1.1256	8.9848	243.06	2.7737	52.815	0.080952	0.00034119	271.12	0.0036885	361.51	386.36	1.6188	1.2545	12.399	184.95	8.9512	20.923	0.056646
300.23	6.7485	674.80	0.0014819	274.56	284.56	1.2796	1.1285	9.1294	241.80	2.7971	52.634	0.081012	0.00033323	272.34	0.0036719	361.23	386.01	1.6175	1.2578	12.641	184.76	8.9232	20.977	0.057106
300.30	6.7600	673.34	0.0014851	274.90	284.94	1.2809	1.1313	9.2796	240.54	2.8208	52.452	0.081079	0.00032531	273.58	0.0036552	360.94	385.65	1.6162	1.2613	12.891	184.57	8.8949	21.032	0.057577
300.38	6.7714	671.86	0.0014884	275.25	285.33	1.2821	1.1343	9.4356	239.27	2.8448	52.268	0.081150	0.00031744	274.84	0.0036385	360.65	385.29	1.6149	1.2647	13.152	184.38	8.8664	21.088	0.058060
300.45	6.7828	670.37	0.0014917	275.61	285.72	1.2833	1.1374	9.5979	237.99	2.8692	52.083	0.081228	0.00030963	276.11	0.0036217	360.36	384.93	1.6135	1.2683	13.423	184.18	8.8377	21.144	0.058554
300.53	6.7943	668.86	0.0014951	275.96	286.12	1.2846	1.1405	9.7669	236.71	2.8940	51.897	0.081313	0.00030186	277.40	0.0036049	360.07	384.56	1.6122	1.2719	13.705	183.98	8.8086	21.202	0.059061
300.60	6.8057	667.34	0.0014985	276.32	286.52	1.2859	1.1437	9.9428	235.42	2.9191	51.710	0.081403	0.00029415	278.70	0.0035881	359.77	384.19	1.6108	1.2756	14.000	183.78	8.7793	21.261	0.059581
300.67	6.8171	665.80	0.0015020	276.68	286.92	1.2871	1.1470	10.126	234.11	2.9447	51.522	0.081501	0.00028649	280.02	0.0035712	359.46	383.81	1.6094	1.2793	14.307	183.58	8.7497	21.320	0.060114
300.75	6.8286	664.24	0.0015055	277.04	287.32	1.2884	1.1504	10.318	232.80	2.9707	51.332	0.081606	0.00027889	281.36	0.0035542	359.15	383.42	1.6080	1.2832	14.627	183.37	8.7198	21.381	0.060662
300.82	6.8400	662.67	0.0015091	277.41	287.73	1.2897	1.1540	10.518	231.48	2.9971	51.141	0.081718	0.00027134	282.71	0.0035371	358.84	383.04	1.6065	1.2871	14.962	183.15	8.6895	21.442	0.061226
300.89	6.8514	661.07	0.0015127	277.78	288.14	1.2910	1.1576	10.727	230.15	3.0239	50.948	0.081839	0.00026384	284.09	0.0035200	358.52	382.64	1.6051	1.2911	15.313	182.94	8.6590	21.505	0.061805
300.97	6.8628	659.46	0.0015164	278.15	288.55	1.2924	1.1613	10.946	228.81	3.0513	50.754	0.081967	0.00025639	285.48	0.0035028	358.20	382.24	1.6036	1.2952	15.679	182.71	8.6281	21.569	0.062400
301.04	6.8743	657.83	0.0015202	278.52	288.97	1.2937	1.1651	11.175	227.46	3.0790	50.558	0.082105	0.00024900	286.90	0.0034856	357.87	381.84	1.6022	1.2994	16.064	182.49	8.5969	21.633	0.063014
301.11	6.8857	656.17	0.0015240	278.90	289.40	1.2950	1.1691	11.416	226.10	3.1073	50.360	0.082252	0.00024167	288.33	0.0034682	357.54	381.42	1.6007	1.3037	16.468	182.26	8.5653	21.700	0.063646
301.18	6.8971	654.50	0.0015279	279.28	289.82	1.2964	1.1732	11.669	224.73	3.1361	50.161	0.082408	0.00023439	289.79	0.0034508	357.20	381.01	1.5991	1.3081	16.892	182.02	8.5333	21.767	0.064298
301.26	6.9086	652.80	0.0015319	279.67	290.25	1.2978	1.1774	11.935	223.34	3.1654	49.960	0.082575	0.00022717	291.27	0.0034333	356.86	380.58	1.5976	1.3126	17.338	181.78	8.5010	21.836	0.064971
301.33	6.9200	651.08	0.0015359	280.06	290.69	1.2992	1.1818	12.214	221.94	3.1953	49.757	0.082753	0.00022001	292.77	0.0034157	356.51	380.15	1.5960	1.3172	17.808	181.54	8.4682	21.906	0.065666
301.40	6.9314	649.34	0.0015400	280.45	291.13	1.3006	1.1863	12.510	220.53	3.2258	49.552	0.082943	0.00021291	294.30	0.0033979	356.16	379.71	1.5945	1.3220	18.303	181.28	8.4350	21.977	0.066384
301.47	6.9429	647.57	0.0015442	280.85	291.57	1.3020	1.1910	12.821	219.10	3.2568	49.345	0.083145	0.00020586	295.85	0.0033801	355.80	379.26	1.5928	1.3268	18.826	181.03	8.4014	22.050	0.067128
301.55	6.9543	645.77	0.0015485	281.26	292.02	1.3034	1.1958	13.151	217.66	3.2885	49.136	0.083360	0.00019887	297.43	0.0033622	355.43	378.81	1.5912	1.3319	19.380	180.76	8.3673	22.125	0.067898
301.62	6.9657	643.95	0.0015529	281.66	292.48	1.3049	1.2009	13.501	216.20	3.3208	48.925	0.083590	0.00019195	299.04	0.0033441	355.06	378.35	1.5896	1.3370	19.967	180.49	8.3328	22.201	0.068697
301.69	6.9772	642.10	0.0015574	282.08	292.94	1.3063	1.2061	13.871	214.72	3.3539	48.711	0.083834	0.00018508	300.67	0.0033259	354.67	377.88	1.5879	1.3424	20.589	180.21	8.2977	22.279	0.069527
301.76	6.9886	640.22	0.0015620	282.49	293.41	1.3078	1.2116	14.266	213.23	3.3876	48.495	0.084095	0.00017828	302.34	0.0033075	354.28	377.40	1.5862	1.3478	21.251	179.92	8.2621	22.359	0.070390
301.83	7.0000	638.30	0.0015667	282.92	293.88	1.3093	1.2173	14.686	211.71	3.4221	48.277	0.084374	0.00017154	304.04	0.0032891	353.89	376.91	1.5844	1.3535	21.956	179.63	8.2260	22.440	0.071287
301.90	7.0115	636.35	0.0015715	283.34	294.36	1.3109	1.2232	15.135	210.18	3.4574	48.055	0.084671	0.00016486	305.77	0.0032704	353.48	376.41	1.5826	1.3594	22.708	179.33	8.1893	22.524	0.072223
301.98	7.0229	634.37	0.0015764	283.78	294.85	1.3124	1.2294	15.615	208.62	3.4935	47.831	0.084989	0.00015825	307.54	0.0032516	353.07	375.91	1.5808	1.3655	23.512	179.01	8.1520	22.610	0.073199
302.05	7.0343	632.35	0.0015814	284.22	295.34	1.3140	1.2359	16.130	207.04	3.5305	47.603	0.085329	0.00015171	309.35	0.0032326	352.65	375.39	1.5790	1.3718	24.375	178.69	8.1140	22.698	0.074220
302.12	7.0458	630.29	0.0015866	284.67	295.85	1.3156	1.2426	16.684	205.43	3.5685	47.373	0.085693	0.00014523	311.19	0.0032135	352.21	374.86	1.5771	1.3783	25.301	178.36	8.0753	22.788	0.075289
302.19	7.0572	628.19	0.0015919	285.12	296.36	1.3172	1.2497	17.281	203.80	3.6074	47.138	0.086084	0.00013882	313.08	0.0031941	351.77	374.31	1.5752	1.3851	26.299	178.01	8.0360	22.881	0.076410
302.26	7.0686	626.05	0.0015973	285.58	296.87	1.3189	1.2572	17.927	202.13	3.6473	46.901	0.086504	0.00013248	315.01	0.0031745	351.32	373.76	1.5732	1.3922	27.377	177.65	7.9958	22.977	0.077588
302.33	7.0801	623.86	0.0016029	286.05	297.40	1.3206	1.2651	18.628	200.44	3.6883	46.659	0.086955	0.00012621	316.99	0.0031547	350.85	373.19	1.5712	1.3995	28.544	177.28	7.9549	23.075	0.078828
302.40	7.0915	621.62	0.0016087	286.53	297.94	1.3223	1.2734	19.390	198.71	3.7305	46.413	0.087442	0.00012002	319.02	0.0031346	350.38	372.61	1.5692	1.4072	29.813	176.89	7.9131	23.177	0.080137
302.47	7.1029	619.32	0.0016147	287.02	298.49	1.3240	1.2822	20.224	196.94	3.7739	46.163	0.087968	0.00011390	321.10	0.0031143	349.89	372.01	1.5671	1.4153	31.196	176.49	7.8704	23.282	0.081522
302.54	7.1144	616.97	0.0016208	287.52	299.05	1.3258	1.2915	21.137	195.14	3.8187	45.908	0.088538	0.00010785	323.24	0.0030936	349.38	371.39	1.5649	1.4238	32.710	176.07	7.8267	23.390	0.082990
302.61	7.1258	614.56	0.0016272	288.03	299.62	1.3277	1.3014	22.143	193.29	3.8648	45.647	0.089156	0.00010188	325.45	0.0030727	348.86	370.76	1.5627	1.4327	34.373	175.63	7.7820	23.502	0.084551
302.68	7.1372	612.08	0.0016338	288.54	300.21	1.3295	1.3119	23.257	191.40	3.9125	45.381	0.089830	9.5996e-05	327.72	0.0030514	348.33	370.11	1.5605	1.4421	36.208	175.16	7.7362	23.618	0.086216
302.75	7.1487	609.53	0.0016406	289.08	300.80	1.3314	1.3232	24.495	189.46	3.9617	45.110	0.090565	9.0191e-05	330.06	0.0030298	347.78	369.44	1.5581	1.4521	38.244	174.67	7.6891	23.739	0.087998
302.82	7.1601	606.90	0.0016477	289.62	301.42	1.3334	1.3353	25.879	187.46	4.0127	44.831	0.091372	8.4470e-05	332.48	0.0030077	347.21	368.74	1.5557	1.4626	40.512	174.16	7.6408	23.865	0.089911
302.89	7.1715	604.19	0.0016551	290.18	302.05	1.3354	1.3483	27.436	185.41	4.0655	44.546	0.092261	7.8836e-05	334.98	0.0029852	346.62	368.02	1.5532	1.4738	43.055	173.61	7.5911	23.995	0.091975
302.96	7.1830	601.39	0.0016628	290.76	302.70	1.3375	1.3623	29.200	183.29	4.1203	44.253	0.093243	7.3293e-05	337.58	0.0029623	346.00	367.28	1.5507	1.4858	45.924	173.03	7.5399	24.132	0.094209
303.03	7.1944	598.48	0.0016709	291.35	303.37	1.3397	1.3775	31.213	181.10	4.1773	43.951	0.094336	6.7843e-05	340.28	0.0029388	345.37	366.51	1.5480	1.4987	49.185	172.41	7.4870	24.275	0.096641
303.10	7.2058	595.46	0.0016794	291.96	304.06	1.3419	1.3940	33.530	178.84	4.2366	43.640	0.095559	6.2489e-05	343.09	0.0029147	344.70	365.70	1.5452	1.5126	52.920	171.75	7.4324	24.425	0.099303
303.17	7.2172	592.32	0.0016883	292.59	304.78	1.3442	1.4121	36.222	176.49	4.2985	43.318	0.096937	5.7236e-05	346.03	0.0028899	344.01	364.86	1.5424	1.5277	57.237	171.03	7.3758	24.583	0.10223
303.24	7.2287	589.04	0.0016977	293.25	305.53	1.3466	1.4320	39.385	174.05	4.3631	42.985	0.098500	5.2089e-05	349.11	0.0028644	343.28	363.98	1.5394	1.5441	62.279	170.25	7.3170	24.750	0.10549
303.31	7.2401	585.60	0.0017077	293.94	306.30	1.3491	1.4540	43.147	171.50	4.4308	42.638	0.10029	4.7052e-05	352.35	0.0028381	342.51	363.06	1.5362	1.5621	68.238	169.40	7.2558	24.927	0.10912
303.38	7.2515	581.98	0.0017183	294.65	307.11	1.3517	1.4785	47.688	168.84	4.5018	42.277	0.10237	4.2131e-05	355.77	0.0028108	341.70	362.09	1.5329	1.5820	75.379	168.47	7.1919	25.116	0.11323
303.45	7.2630	578.15	0.0017297	295.41	307.97	1.3544	1.5060	53.264	166.05	4.5765	41.898	0.10480	3.7333e-05	359.40	0.0027824	340.85	361.05	1.5294	1.6042	84.077	167.44	7.1249	25.318	0.11792
303.52	7.2744	574.08	0.0017419	296.20	308.87	1.3574	1.5373	60.253	163.12	4.6552	41.499	0.10769	3.2666e-05	363.28	0.0027527	339.93	359.95	1.5257	1.6294	94.882	166.27	7.0546	25.536	0.12335
303.59	7.2858	569.73	0.0017552	297.05	309.83	1.3605	1.5731	69.235	160.01	4.7385	41.077	0.11120	2.8140e-05	367.45	0.0027215	338.95	358.77	1.5217	1.6581	108.63	164.96	6.9802	25.774	0.12974
303.65	7.2973	565.04	0.0017698	297.95	310.86	1.3638	1.6147	81.145	156.71	4.8268	40.626	0.11555	2.3765e-05	371.97	0.0026884	337.88	357.50	1.5174	1.6915	126.64	163.44	6.9013	26.034	0.13742
303.72	7.3087	559.92	0.0017860	298.93	311.98	1.3674	1.6639	97.582	153.16	4.9209	40.141	0.12111	1.9558e-05	376.94	0.0026530	336.71	356.10	1.5127	1.7313	151.18	161.65	6.8168	26.323	0.14690
303.79	7.3201	554.25	0.0018042	300.00	313.21	1.3714	1.7235	121.51	149.33	5.0215	39.611	0.12849	1.5535e-05	382.47	0.0026146	335.41	354.55	1.5075	1.7799	186.33	159.50	6.7257	26.651	0.15901
303.86	7.3316	547.86	0.0018253	301.21	314.59	1.3759	1.7981	159.02	145.12	5.1297	39.021	0.13882	1.1723e-05	388.77	0.0025722	333.94	352.80	1.5016	1.8418	240.48	156.82	6.6261	27.029	0.17530
303.93	7.3430	540.43	0.0018504	302.60	316.19	1.3810	1.8960	224.88	140.37	5.2473	38.346	0.15453	8.1573e-06	396.18	0.0025241	332.21	350.75	1.4947	1.9256	333.47	153.29	6.5152	27.483	0.19892
303.99	7.3544	531.31	0.0018822	304.31	318.15	1.3874	2.0361	365.10	134.74	5.3771	37.535	0.18197	4.8958e-06	405.40	0.0024667	330.08	348.22	1.4863	2.0520	526.11	148.23	6.3878	28.061	0.23799
304.06	7.3659	518.70	0.0019279	306.65	320.85	1.3962	2.2788	821.68	127.19	5.5268	36.443	0.24679	2.0477e-06	418.35	0.0023903	327.12	344.72	1.4747	2.2937	1129.7	139.49	6.2308	28.897	0.32411
304.13	7.3773	467.60	0.0021386	316.47	332.25	1.4336	undefined	undefined	undefined	5.8665	32.352	undefined	0.0000	467.60	0.0021386	316.47	332.25	1.4336	undefined	undefined	undefined	5.8665	32.352	undefined
