Temperature (K)	Pressure (MPa)	Density (l, kg/m3)	Volume (l, m3/kg)	Internal Energy (l, kJ/kg)	Enthalpy (l, kJ/kg)	Entropy (l, J/g*K)	Cv (l, J/g*K)	Cp (l, J/g*K)	Sound Spd. (l, m/s)	Joule-Thomson (l, K/MPa)	Viscosity (l, uPa*s)	Therm. Cond. (l, W/m*K)	Surf. Tension (l, N/m)	Density (v, kg/m3)	Volume (v, m3/kg)	Internal Energy (v, kJ/kg)	Enthalpy (v, kJ/kg)	Entropy (v, J/g*K)	Cv (v, J/g*K)	Cp (v, J/g*K)	Sound Spd. (v, m/s)	Joule-Thomson (v, K/MPa)	Viscosity (v, uPa*s)	Therm. Cond. (v, W/m*K)
249.01	1.7297	1050.4	0.00095203	143.96	145.61	0.79855	0.93718	2.1225	739.31	0.047485	149.27	0.13772	0.0092346	45.147	0.022150	398.74	437.06	1.9690	0.74158	1.2212	221.44	18.187	12.664	0.014826
249.10	1.7348	1050.0	0.00095240	144.15	145.80	0.79931	0.93711	2.1233	738.62	0.048362	149.05	0.13761	0.0092153	45.284	0.022083	398.75	437.06	1.9685	0.74198	1.2226	221.42	18.170	12.669	0.014840
249.19	1.7399	1049.6	0.00095277	144.34	146.00	0.80007	0.93704	2.1242	737.92	0.049242	148.83	0.13750	0.0091960	45.421	0.022016	398.75	437.06	1.9681	0.74238	1.2240	221.40	18.153	12.675	0.014854
249.29	1.7450	1049.2	0.00095314	144.53	146.19	0.80083	0.93697	2.1251	737.22	0.050125	148.61	0.13739	0.0091768	45.559	0.021949	398.75	437.05	1.9676	0.74278	1.2254	221.38	18.136	12.681	0.014869
249.38	1.7501	1048.8	0.00095352	144.72	146.39	0.80159	0.93690	2.1260	736.52	0.051010	148.40	0.13728	0.0091575	45.698	0.021883	398.76	437.05	1.9672	0.74318	1.2269	221.36	18.119	12.687	0.014883
249.47	1.7552	1048.3	0.00095389	144.91	146.58	0.80235	0.93683	2.1269	735.82	0.051898	148.18	0.13718	0.0091382	45.836	0.021817	398.76	437.05	1.9667	0.74358	1.2283	221.34	18.102	12.693	0.014897
249.56	1.7604	1047.9	0.00095426	145.10	146.78	0.80311	0.93676	2.1278	735.13	0.052790	147.96	0.13707	0.0091190	45.975	0.021751	398.76	437.05	1.9662	0.74398	1.2297	221.32	18.085	12.698	0.014912
249.65	1.7655	1047.5	0.00095463	145.29	146.97	0.80388	0.93669	2.1286	734.43	0.053684	147.74	0.13696	0.0090997	46.114	0.021685	398.76	437.05	1.9658	0.74438	1.2311	221.30	18.069	12.704	0.014926
249.74	1.7707	1047.1	0.00095501	145.48	147.17	0.80464	0.93662	2.1295	733.73	0.054581	147.52	0.13685	0.0090805	46.254	0.021620	398.77	437.05	1.9653	0.74478	1.2326	221.27	18.052	12.710	0.014941
249.84	1.7758	1046.7	0.00095538	145.67	147.36	0.80540	0.93655	2.1304	733.03	0.055481	147.31	0.13674	0.0090613	46.394	0.021554	398.77	437.05	1.9649	0.74519	1.2340	221.25	18.035	12.716	0.014955
249.93	1.7810	1046.3	0.00095576	145.86	147.56	0.80616	0.93649	2.1313	732.33	0.056384	147.09	0.13663	0.0090420	46.535	0.021489	398.77	437.05	1.9644	0.74559	1.2354	221.23	18.018	12.722	0.014970
250.02	1.7862	1045.9	0.00095613	146.05	147.75	0.80692	0.93642	2.1323	731.63	0.057289	146.87	0.13652	0.0090228	46.675	0.021425	398.77	437.04	1.9640	0.74600	1.2369	221.21	18.001	12.728	0.014984
250.11	1.7914	1045.5	0.00095651	146.24	147.95	0.80768	0.93635	2.1332	730.93	0.058198	146.66	0.13641	0.0090036	46.817	0.021360	398.78	437.04	1.9635	0.74640	1.2383	221.19	17.984	12.734	0.014999
250.20	1.7966	1045.1	0.00095689	146.43	148.14	0.80844	0.93629	2.1341	730.23	0.059110	146.44	0.13630	0.0089844	46.958	0.021296	398.78	437.04	1.9631	0.74681	1.2398	221.17	17.968	12.739	0.015013
250.30	1.8018	1044.6	0.00095726	146.62	148.34	0.80920	0.93622	2.1350	729.52	0.060025	146.23	0.13619	0.0089652	47.100	0.021231	398.78	437.04	1.9626	0.74722	1.2413	221.14	17.951	12.745	0.015028
250.39	1.8071	1044.2	0.00095764	146.80	148.54	0.80996	0.93615	2.1359	728.82	0.060943	146.01	0.13609	0.0089460	47.242	0.021167	398.78	437.03	1.9622	0.74762	1.2427	221.12	17.934	12.751	0.015043
250.48	1.8123	1043.8	0.00095802	146.99	148.73	0.81072	0.93609	2.1368	728.12	0.061864	145.80	0.13598	0.0089269	47.385	0.021104	398.79	437.03	1.9617	0.74803	1.2442	221.10	17.918	12.757	0.015057
250.57	1.8176	1043.4	0.00095840	147.18	148.93	0.81149	0.93602	2.1378	727.42	0.062788	145.58	0.13587	0.0089077	47.528	0.021040	398.79	437.03	1.9613	0.74844	1.2457	221.08	17.901	12.763	0.015072
250.66	1.8228	1043.0	0.00095878	147.37	149.12	0.81225	0.93596	2.1387	726.71	0.063715	145.37	0.13576	0.0088885	47.671	0.020977	398.79	437.03	1.9608	0.74885	1.2472	221.06	17.884	12.769	0.015087
250.76	1.8281	1042.6	0.00095916	147.56	149.32	0.81301	0.93589	2.1396	726.01	0.064645	145.15	0.13565	0.0088694	47.815	0.020914	398.79	437.02	1.9604	0.74926	1.2487	221.03	17.868	12.775	0.015102
250.85	1.8334	1042.2	0.00095954	147.75	149.51	0.81377	0.93583	2.1406	725.31	0.065578	144.94	0.13554	0.0088503	47.959	0.020851	398.79	437.02	1.9599	0.74967	1.2501	221.01	17.851	12.781	0.015116
250.94	1.8387	1041.7	0.00095992	147.94	149.71	0.81453	0.93577	2.1415	724.60	0.066514	144.73	0.13543	0.0088311	48.104	0.020788	398.79	437.02	1.9595	0.75008	1.2516	220.99	17.834	12.787	0.015131
251.03	1.8440	1041.3	0.00096031	148.14	149.91	0.81529	0.93570	2.1425	723.90	0.067453	144.52	0.13532	0.0088120	48.249	0.020726	398.79	437.01	1.9590	0.75050	1.2532	220.97	17.818	12.793	0.015146
251.12	1.8493	1040.9	0.00096069	148.33	150.10	0.81605	0.93564	2.1434	723.19	0.068395	144.30	0.13521	0.0087929	48.394	0.020664	398.80	437.01	1.9585	0.75091	1.2547	220.94	17.801	12.799	0.015161
251.21	1.8547	1040.5	0.00096107	148.52	150.30	0.81681	0.93558	2.1444	722.49	0.069341	144.09	0.13510	0.0087738	48.540	0.020602	398.80	437.01	1.9581	0.75132	1.2562	220.92	17.785	12.805	0.015176
251.31	1.8600	1040.1	0.00096146	148.71	150.49	0.81757	0.93552	2.1453	721.78	0.070290	143.88	0.13500	0.0087547	48.686	0.020540	398.80	437.00	1.9576	0.75174	1.2577	220.90	17.768	12.811	0.015191
251.40	1.8654	1039.7	0.00096184	148.90	150.69	0.81833	0.93546	2.1463	721.08	0.071241	143.67	0.13489	0.0087356	48.832	0.020478	398.80	437.00	1.9572	0.75215	1.2592	220.87	17.752	12.817	0.015206
251.49	1.8707	1039.3	0.00096223	149.09	150.89	0.81909	0.93539	2.1472	720.37	0.072196	143.45	0.13478	0.0087165	48.979	0.020417	398.80	436.99	1.9567	0.75257	1.2607	220.85	17.735	12.823	0.015221
251.58	1.8761	1038.8	0.00096261	149.28	151.08	0.81985	0.93533	2.1482	719.66	0.073155	143.24	0.13467	0.0086975	49.126	0.020356	398.80	436.99	1.9563	0.75298	1.2623	220.83	17.719	12.829	0.015236
251.67	1.8815	1038.4	0.00096300	149.47	151.28	0.82061	0.93527	2.1492	718.95	0.074116	143.03	0.13456	0.0086784	49.274	0.020295	398.80	436.98	1.9558	0.75340	1.2638	220.80	17.702	12.834	0.015252
251.77	1.8869	1038.0	0.00096339	149.66	151.48	0.82137	0.93521	2.1502	718.25	0.075081	142.82	0.13445	0.0086593	49.422	0.020234	398.80	436.98	1.9554	0.75382	1.2654	220.78	17.686	12.841	0.015267
251.86	1.8923	1037.6	0.00096378	149.85	151.67	0.82213	0.93515	2.1511	717.54	0.076049	142.61	0.13434	0.0086403	49.570	0.020173	398.80	436.97	1.9549	0.75424	1.2669	220.75	17.669	12.847	0.015282
251.95	1.8977	1037.2	0.00096417	150.04	151.87	0.82289	0.93509	2.1521	716.83	0.077020	142.40	0.13423	0.0086213	49.719	0.020113	398.80	436.97	1.9545	0.75466	1.2685	220.73	17.653	12.853	0.015297
252.04	1.9032	1036.7	0.00096456	150.23	152.07	0.82365	0.93504	2.1531	716.12	0.077994	142.19	0.13412	0.0086022	49.868	0.020053	398.80	436.96	1.9540	0.75508	1.2700	220.71	17.636	12.859	0.015313
252.13	1.9086	1036.3	0.00096495	150.42	152.26	0.82441	0.93498	2.1541	715.41	0.078972	141.98	0.13402	0.0085832	50.018	0.019993	398.80	436.96	1.9536	0.75550	1.2716	220.68	17.620	12.865	0.015328
252.23	1.9141	1035.9	0.00096534	150.61	152.46	0.82517	0.93492	2.1551	714.70	0.079953	141.77	0.13391	0.0085642	50.168	0.019933	398.80	436.95	1.9531	0.75592	1.2732	220.66	17.604	12.871	0.015343
252.32	1.9195	1035.5	0.00096573	150.80	152.66	0.82593	0.93486	2.1561	713.99	0.080937	141.57	0.13380	0.0085452	50.318	0.019874	398.80	436.95	1.9527	0.75634	1.2748	220.63	17.587	12.877	0.015359
252.41	1.9250	1035.1	0.00096612	151.00	152.86	0.82670	0.93481	2.1571	713.28	0.081924	141.36	0.13369	0.0085262	50.469	0.019814	398.80	436.94	1.9522	0.75677	1.2763	220.61	17.571	12.883	0.015374
252.50	1.9305	1034.6	0.00096652	151.19	153.05	0.82746	0.93475	2.1581	712.56	0.082915	141.15	0.13358	0.0085072	50.620	0.019755	398.80	436.94	1.9517	0.75719	1.2779	220.58	17.555	12.889	0.015390
252.59	1.9360	1034.2	0.00096691	151.38	153.25	0.82822	0.93469	2.1591	711.85	0.083909	140.94	0.13347	0.0084882	50.772	0.019696	398.80	436.93	1.9513	0.75762	1.2795	220.56	17.538	12.895	0.015405
252.68	1.9415	1033.8	0.00096730	151.57	153.45	0.82898	0.93464	2.1601	711.14	0.084907	140.73	0.13336	0.0084693	50.924	0.019637	398.80	436.92	1.9508	0.75804	1.2811	220.54	17.522	12.901	0.015421
252.78	1.9470	1033.4	0.00096770	151.76	153.64	0.82974	0.93458	2.1611	710.43	0.085908	140.53	0.13325	0.0084503	51.076	0.019579	398.80	436.92	1.9504	0.75847	1.2827	220.51	17.506	12.907	0.015437
252.87	1.9526	1033.0	0.00096809	151.95	153.84	0.83050	0.93453	2.1622	709.71	0.086912	140.32	0.13314	0.0084313	51.229	0.019520	398.80	436.91	1.9499	0.75889	1.2844	220.49	17.490	12.913	0.015452
252.96	1.9581	1032.5	0.00096849	152.14	154.04	0.83126	0.93448	2.1632	709.00	0.087920	140.11	0.13304	0.0084124	51.382	0.019462	398.80	436.91	1.9495	0.75932	1.2860	220.46	17.473	12.919	0.015468
253.05	1.9637	1032.1	0.00096889	152.33	154.24	0.83202	0.93442	2.1642	708.29	0.088931	139.91	0.13293	0.0083935	51.535	0.019404	398.80	436.90	1.9490	0.75975	1.2876	220.43	17.457	12.925	0.015484
253.14	1.9693	1031.7	0.00096929	152.53	154.44	0.83278	0.93437	2.1652	707.57	0.089946	139.70	0.13282	0.0083745	51.689	0.019346	398.79	436.89	1.9486	0.76018	1.2892	220.41	17.441	12.932	0.015499
253.24	1.9748	1031.3	0.00096968	152.72	154.63	0.83354	0.93432	2.1663	706.85	0.090964	139.49	0.13271	0.0083556	51.844	0.019289	398.79	436.88	1.9481	0.76061	1.2909	220.38	17.425	12.938	0.015515
253.33	1.9804	1030.8	0.00097008	152.91	154.83	0.83430	0.93427	2.1673	706.14	0.091985	139.29	0.13260	0.0083367	51.998	0.019231	398.79	436.88	1.9477	0.76104	1.2925	220.36	17.409	12.944	0.015531
253.42	1.9860	1030.4	0.00097048	153.10	155.03	0.83506	0.93421	2.1684	705.42	0.093010	139.08	0.13249	0.0083178	52.154	0.019174	398.79	436.87	1.9472	0.76147	1.2941	220.33	17.393	12.950	0.015547
253.51	1.9917	1030.0	0.00097088	153.29	155.23	0.83582	0.93416	2.1694	704.71	0.094039	138.88	0.13238	0.0082989	52.309	0.019117	398.79	436.86	1.9468	0.76190	1.2958	220.31	17.376	12.956	0.015563
253.60	1.9973	1029.6	0.00097129	153.49	155.43	0.83658	0.93411	2.1705	703.99	0.095071	138.67	0.13227	0.0082800	52.465	0.019060	398.79	436.86	1.9463	0.76234	1.2975	220.28	17.360	12.962	0.015579
253.70	2.0029	1029.1	0.00097169	153.68	155.62	0.83734	0.93406	2.1715	703.27	0.096107	138.47	0.13217	0.0082612	52.622	0.019004	398.78	436.85	1.9458	0.76277	1.2991	220.25	17.344	12.968	0.015595
253.79	2.0086	1028.7	0.00097209	153.87	155.82	0.83810	0.93401	2.1726	702.55	0.097146	138.26	0.13206	0.0082423	52.778	0.018947	398.78	436.84	1.9454	0.76320	1.3008	220.23	17.328	12.975	0.015611
253.88	2.0142	1028.3	0.00097249	154.06	156.02	0.83886	0.93396	2.1737	701.83	0.098189	138.06	0.13195	0.0082234	52.936	0.018891	398.78	436.83	1.9449	0.76364	1.3025	220.20	17.312	12.981	0.015627
253.97	2.0199	1027.9	0.00097290	154.25	156.22	0.83962	0.93392	2.1747	701.11	0.099235	137.86	0.13184	0.0082046	53.093	0.018835	398.78	436.82	1.9445	0.76407	1.3042	220.18	17.296	12.987	0.015643
254.06	2.0256	1027.4	0.00097330	154.45	156.42	0.84038	0.93387	2.1758	700.39	0.10028	137.65	0.13173	0.0081858	53.251	0.018779	398.78	436.81	1.9440	0.76451	1.3058	220.15	17.280	12.993	0.015659
254.15	2.0313	1027.0	0.00097371	154.64	156.62	0.84114	0.93382	2.1769	699.67	0.10134	137.45	0.13162	0.0081669	53.410	0.018723	398.77	436.81	1.9436	0.76495	1.3075	220.12	17.264	13.000	0.015676
254.25	2.0370	1026.6	0.00097411	154.83	156.81	0.84190	0.93378	2.1780	698.95	0.10240	137.25	0.13151	0.0081481	53.569	0.018668	398.77	436.80	1.9431	0.76538	1.3092	220.10	17.248	13.006	0.015692
254.34	2.0427	1026.1	0.00097452	155.02	157.01	0.84266	0.93373	2.1791	698.23	0.10346	137.04	0.13140	0.0081293	53.728	0.018612	398.77	436.79	1.9427	0.76582	1.3110	220.07	17.232	13.012	0.015708
254.43	2.0485	1025.7	0.00097493	155.22	157.21	0.84342	0.93368	2.1802	697.51	0.10452	136.84	0.13130	0.0081105	53.888	0.018557	398.77	436.78	1.9422	0.76626	1.3127	220.04	17.216	13.018	0.015725
254.52	2.0542	1025.3	0.00097534	155.41	157.41	0.84418	0.93364	2.1813	696.78	0.10559	136.64	0.13119	0.0080917	54.048	0.018502	398.76	436.77	1.9418	0.76670	1.3144	220.01	17.200	13.024	0.015741
254.61	2.0600	1024.9	0.00097575	155.60	157.61	0.84494	0.93359	2.1824	696.06	0.10666	136.44	0.13108	0.0080729	54.209	0.018447	398.76	436.76	1.9413	0.76714	1.3161	219.99	17.184	13.031	0.015757
254.71	2.0658	1024.4	0.00097616	155.79	157.81	0.84570	0.93355	2.1835	695.34	0.10774	136.24	0.13097	0.0080541	54.370	0.018393	398.76	436.75	1.9408	0.76758	1.3178	219.96	17.168	13.037	0.015774
254.80	2.0715	1024.0	0.00097657	155.99	158.01	0.84646	0.93351	2.1846	694.61	0.10882	136.04	0.13086	0.0080354	54.531	0.018338	398.75	436.74	1.9404	0.76803	1.3196	219.93	17.152	13.043	0.015790
254.89	2.0773	1023.6	0.00097698	156.18	158.21	0.84722	0.93347	2.1857	693.89	0.10990	135.84	0.13075	0.0080166	54.693	0.018284	398.75	436.73	1.9399	0.76847	1.3213	219.90	17.137	13.050	0.015807
254.98	2.0831	1023.1	0.00097739	156.37	158.41	0.84798	0.93342	2.1868	693.16	0.11099	135.63	0.13064	0.0079978	54.855	0.018230	398.75	436.72	1.9395	0.76891	1.3231	219.88	17.121	13.056	0.015824
255.07	2.0890	1022.7	0.00097780	156.56	158.61	0.84874	0.93338	2.1879	692.44	0.11208	135.43	0.13054	0.0079791	55.018	0.018176	398.74	436.71	1.9390	0.76936	1.3248	219.85	17.105	13.062	0.015840
255.16	2.0948	1022.3	0.00097822	156.76	158.81	0.84950	0.93334	2.1891	691.71	0.11317	135.23	0.13043	0.0079604	55.181	0.018122	398.74	436.70	1.9386	0.76980	1.3266	219.82	17.089	13.069	0.015857
255.26	2.1006	1021.8	0.00097863	156.95	159.01	0.85026	0.93330	2.1902	690.98	0.11427	135.03	0.13032	0.0079416	55.345	0.018069	398.73	436.69	1.9381	0.77025	1.3284	219.79	17.073	13.075	0.015874
255.35	2.1065	1021.4	0.00097905	157.14	159.21	0.85102	0.93326	2.1913	690.25	0.11537	134.84	0.13021	0.0079229	55.509	0.018015	398.73	436.68	1.9377	0.77069	1.3301	219.76	17.057	13.081	0.015891
255.44	2.1123	1021.0	0.00097946	157.34	159.41	0.85178	0.93322	2.1925	689.53	0.11648	134.64	0.13010	0.0079042	55.673	0.017962	398.73	436.67	1.9372	0.77114	1.3319	219.74	17.042	13.088	0.015907
255.53	2.1182	1020.5	0.00097988	157.53	159.61	0.85254	0.93319	2.1936	688.80	0.11759	134.44	0.12999	0.0078855	55.838	0.017909	398.72	436.66	1.9368	0.77159	1.3337	219.71	17.026	13.094	0.015924
255.62	2.1241	1020.1	0.00098030	157.72	159.81	0.85330	0.93315	2.1948	688.07	0.11870	134.24	0.12988	0.0078668	56.004	0.017856	398.72	436.65	1.9363	0.77204	1.3355	219.68	17.010	13.100	0.015941
255.72	2.1300	1019.7	0.00098071	157.92	160.01	0.85406	0.93311	2.1959	687.34	0.11982	134.04	0.12977	0.0078482	56.170	0.017803	398.71	436.64	1.9358	0.77249	1.3373	219.65	16.994	13.107	0.015958
255.81	2.1359	1019.2	0.00098113	158.11	160.21	0.85482	0.93308	2.1971	686.61	0.12094	133.84	0.12967	0.0078295	56.336	0.017751	398.71	436.62	1.9354	0.77294	1.3391	219.62	16.979	13.113	0.015975
255.90	2.1419	1018.8	0.00098155	158.30	160.41	0.85558	0.93304	2.1982	685.88	0.12206	133.64	0.12956	0.0078108	56.503	0.017698	398.70	436.61	1.9349	0.77339	1.3410	219.59	16.963	13.119	0.015992
255.99	2.1478	1018.4	0.00098197	158.50	160.61	0.85634	0.93301	2.1994	685.14	0.12319	133.45	0.12945	0.0077922	56.670	0.017646	398.70	436.60	1.9345	0.77384	1.3428	219.56	16.947	13.126	0.016009
256.08	2.1537	1017.9	0.00098239	158.69	160.81	0.85710	0.93297	2.2006	684.41	0.12433	133.25	0.12934	0.0077735	56.837	0.017594	398.70	436.59	1.9340	0.77429	1.3446	219.54	16.932	13.132	0.016026
256.18	2.1597	1017.5	0.00098282	158.89	161.01	0.85786	0.93294	2.2018	683.68	0.12546	133.05	0.12923	0.0077549	57.005	0.017542	398.69	436.58	1.9336	0.77475	1.3464	219.51	16.916	13.139	0.016044
256.27	2.1657	1017.0	0.00098324	159.08	161.21	0.85862	0.93291	2.2029	682.94	0.12661	132.85	0.12912	0.0077363	57.174	0.017491	398.68	436.56	1.9331	0.77520	1.3483	219.48	16.900	13.145	0.016061
256.36	2.1717	1016.6	0.00098366	159.27	161.41	0.85938	0.93287	2.2041	682.21	0.12775	132.66	0.12901	0.0077177	57.343	0.017439	398.68	436.55	1.9326	0.77566	1.3501	219.45	16.885	13.152	0.016078
256.45	2.1777	1016.2	0.00098409	159.47	161.61	0.86014	0.93284	2.2053	681.48	0.12890	132.46	0.12891	0.0076991	57.512	0.017388	398.67	436.54	1.9322	0.77611	1.3520	219.42	16.869	13.158	0.016096
256.54	2.1837	1015.7	0.00098451	159.66	161.81	0.86090	0.93281	2.2065	680.74	0.13005	132.27	0.12880	0.0076805	57.682	0.017336	398.67	436.53	1.9317	0.77657	1.3539	219.39	16.853	13.164	0.016113
256.63	2.1897	1015.3	0.00098494	159.86	162.01	0.86166	0.93278	2.2077	680.00	0.13121	132.07	0.12869	0.0076619	57.852	0.017285	398.66	436.51	1.9313	0.77702	1.3557	219.36	16.838	13.171	0.016130
256.73	2.1957	1014.9	0.00098537	160.05	162.21	0.86242	0.93276	2.2089	679.27	0.13237	131.87	0.12858	0.0076433	58.023	0.017235	398.66	436.50	1.9308	0.77748	1.3576	219.33	16.822	13.177	0.016148
256.82	2.2018	1014.4	0.00098579	160.24	162.41	0.86318	0.93273	2.2101	678.53	0.13354	131.68	0.12847	0.0076247	58.194	0.017184	398.65	436.49	1.9304	0.77794	1.3595	219.30	16.807	13.184	0.016165
256.91	2.2078	1014.0	0.00098622	160.44	162.62	0.86394	0.93270	2.2114	677.79	0.13471	131.48	0.12836	0.0076062	58.366	0.017133	398.65	436.47	1.9299	0.77840	1.3614	219.27	16.791	13.190	0.016183
257.00	2.2139	1013.5	0.00098665	160.63	162.82	0.86470	0.93267	2.2126	677.05	0.13588	131.29	0.12825	0.0075876	58.538	0.017083	398.64	436.46	1.9294	0.77886	1.3633	219.24	16.776	13.197	0.016201
257.09	2.2200	1013.1	0.00098708	160.83	163.02	0.86546	0.93265	2.2138	676.31	0.13706	131.09	0.12815	0.0075691	58.711	0.017033	398.63	436.45	1.9290	0.77932	1.3652	219.21	16.760	13.203	0.016218
257.19	2.2261	1012.6	0.00098751	161.02	163.22	0.86622	0.93262	2.2150	675.57	0.13825	130.90	0.12804	0.0075505	58.884	0.016983	398.63	436.43	1.9285	0.77978	1.3671	219.18	16.745	13.210	0.016236
257.28	2.2322	1012.2	0.00098794	161.22	163.42	0.86698	0.93260	2.2163	674.83	0.13943	130.71	0.12793	0.0075320	59.057	0.016933	398.62	436.42	1.9281	0.78024	1.3690	219.15	16.729	13.217	0.016254
257.37	2.2383	1011.8	0.00098837	161.41	163.62	0.86774	0.93257	2.2175	674.09	0.14062	130.51	0.12782	0.0075135	59.231	0.016883	398.61	436.40	1.9276	0.78071	1.3710	219.12	16.714	13.223	0.016272
257.46	2.2444	1011.3	0.00098881	161.61	163.83	0.86850	0.93255	2.2188	673.35	0.14182	130.32	0.12771	0.0074950	59.406	0.016833	398.61	436.39	1.9272	0.78117	1.3729	219.08	16.698	13.230	0.016289
257.55	2.2506	1010.9	0.00098924	161.80	164.03	0.86926	0.93253	2.2200	672.61	0.14302	130.13	0.12760	0.0074765	59.580	0.016784	398.60	436.37	1.9267	0.78163	1.3749	219.05	16.683	13.236	0.016307
257.65	2.2567	1010.4	0.00098968	162.00	164.23	0.87003	0.93251	2.2213	671.86	0.14422	129.93	0.12749	0.0074580	59.756	0.016735	398.59	436.36	1.9262	0.78210	1.3768	219.02	16.667	13.243	0.016325
257.74	2.2629	1010.0	0.00099011	162.19	164.43	0.87079	0.93249	2.2225	671.12	0.14543	129.74	0.12739	0.0074395	59.932	0.016686	398.59	436.34	1.9258	0.78256	1.3788	218.99	16.652	13.249	0.016343
257.83	2.2691	1009.5	0.00099055	162.39	164.63	0.87155	0.93247	2.2238	670.38	0.14664	129.55	0.12728	0.0074211	60.108	0.016637	398.58	436.33	1.9253	0.78303	1.3807	218.96	16.637	13.256	0.016362
257.92	2.2753	1009.1	0.00099099	162.58	164.84	0.87231	0.93245	2.2251	669.63	0.14786	129.36	0.12717	0.0074026	60.285	0.016588	398.57	436.31	1.9249	0.78350	1.3827	218.93	16.621	13.263	0.016380
258.01	2.2815	1008.6	0.00099142	162.78	165.04	0.87307	0.93243	2.2264	668.89	0.14908	129.16	0.12706	0.0073841	60.462	0.016539	398.56	436.30	1.9244	0.78396	1.3847	218.90	16.606	13.269	0.016398
258.10	2.2877	1008.2	0.00099186	162.97	165.24	0.87383	0.93242	2.2276	668.14	0.15031	128.97	0.12695	0.0073657	60.640	0.016491	398.56	436.28	1.9239	0.78443	1.3867	218.87	16.590	13.276	0.016416
258.20	2.2939	1007.8	0.00099230	163.17	165.44	0.87459	0.93240	2.2289	667.39	0.15154	128.78	0.12684	0.0073473	60.818	0.016442	398.55	436.27	1.9235	0.78490	1.3887	218.83	16.575	13.283	0.016434
258.29	2.3002	1007.3	0.00099274	163.36	165.65	0.87535	0.93239	2.2302	666.64	0.15277	128.59	0.12673	0.0073288	60.997	0.016394	398.54	436.25	1.9230	0.78537	1.3907	218.80	16.560	13.289	0.016453
258.38	2.3064	1006.9	0.00099319	163.56	165.85	0.87611	0.93237	2.2315	665.90	0.15401	128.40	0.12663	0.0073104	61.176	0.016346	398.53	436.23	1.9226	0.78584	1.3927	218.77	16.544	13.296	0.016471
258.47	2.3127	1006.4	0.00099363	163.75	166.05	0.87687	0.93236	2.2328	665.15	0.15526	128.21	0.12652	0.0072920	61.356	0.016298	398.52	436.22	1.9221	0.78631	1.3947	218.74	16.529	13.303	0.016490
258.56	2.3190	1006.0	0.00099407	163.95	166.26	0.87763	0.93235	2.2341	664.40	0.15651	128.02	0.12641	0.0072736	61.536	0.016251	398.52	436.20	1.9217	0.78679	1.3967	218.71	16.514	13.309	0.016508
258.66	2.3253	1005.5	0.00099452	164.15	166.46	0.87840	0.93233	2.2354	663.65	0.15776	127.83	0.12630	0.0072553	61.717	0.016203	398.51	436.18	1.9212	0.78726	1.3988	218.67	16.499	13.316	0.016527
258.75	2.3316	1005.1	0.00099496	164.34	166.66	0.87916	0.93232	2.2368	662.89	0.15902	127.64	0.12619	0.0072369	61.898	0.016156	398.50	436.17	1.9207	0.78773	1.4008	218.64	16.483	13.323	0.016545
258.84	2.3379	1004.6	0.00099541	164.54	166.86	0.87992	0.93231	2.2381	662.14	0.16028	127.45	0.12608	0.0072185	62.079	0.016108	398.49	436.15	1.9203	0.78821	1.4029	218.61	16.468	13.329	0.016564
258.93	2.3442	1004.2	0.00099585	164.73	167.07	0.88068	0.93230	2.2394	661.39	0.16154	127.26	0.12597	0.0072002	62.261	0.016061	398.48	436.13	1.9198	0.78868	1.4049	218.58	16.453	13.336	0.016583
259.02	2.3506	1003.7	0.00099630	164.93	167.27	0.88144	0.93230	2.2408	660.64	0.16282	127.07	0.12587	0.0071818	62.444	0.016014	398.47	436.12	1.9194	0.78916	1.4070	218.54	16.438	13.343	0.016601
259.12	2.3569	1003.3	0.00099675	165.13	167.48	0.88220	0.93229	2.2421	659.88	0.16409	126.88	0.12576	0.0071635	62.627	0.015967	398.46	436.10	1.9189	0.78964	1.4091	218.51	16.422	13.350	0.016620
259.21	2.3633	1002.8	0.00099720	165.32	167.68	0.88296	0.93228	2.2435	659.13	0.16537	126.69	0.12565	0.0071451	62.811	0.015921	398.45	436.08	1.9184	0.79011	1.4112	218.48	16.407	13.357	0.016639
259.30	2.3697	1002.4	0.00099765	165.52	167.88	0.88372	0.93228	2.2448	658.37	0.16666	126.50	0.12554	0.0071268	62.995	0.015874	398.44	436.06	1.9180	0.79059	1.4132	218.44	16.392	13.363	0.016658
259.39	2.3761	1001.9	0.00099810	165.72	168.09	0.88449	0.93227	2.2462	657.62	0.16795	126.31	0.12543	0.0071085	63.180	0.015828	398.44	436.04	1.9175	0.79107	1.4153	218.41	16.377	13.370	0.016677
259.48	2.3825	1001.5	0.00099855	165.91	168.29	0.88525	0.93227	2.2475	656.86	0.16924	126.12	0.12532	0.0070902	63.365	0.015782	398.43	436.03	1.9170	0.79155	1.4175	218.38	16.362	13.377	0.016696
259.57	2.3889	1001.0	0.00099900	166.11	168.49	0.88601	0.93227	2.2489	656.10	0.17054	125.94	0.12521	0.0070719	63.550	0.015736	398.42	436.01	1.9166	0.79203	1.4196	218.34	16.347	13.384	0.016715
259.67	2.3953	1000.5	0.00099946	166.30	168.70	0.88677	0.93227	2.2503	655.34	0.17185	125.75	0.12511	0.0070536	63.736	0.015690	398.41	435.99	1.9161	0.79251	1.4217	218.31	16.332	13.391	0.016734
259.76	2.4018	1000.1	0.00099991	166.50	168.90	0.88753	0.93227	2.2517	654.59	0.17316	125.56	0.12500	0.0070354	63.923	0.015644	398.40	435.97	1.9157	0.79299	1.4238	218.28	16.316	13.397	0.016754
259.85	2.4082	999.63	0.0010004	166.70	169.11	0.88829	0.93227	2.2531	653.83	0.17447	125.37	0.12489	0.0070171	64.110	0.015598	398.39	435.95	1.9152	0.79347	1.4260	218.24	16.301	13.404	0.016773
259.94	2.4147	999.18	0.0010008	166.90	169.31	0.88906	0.93227	2.2545	653.07	0.17579	125.19	0.12478	0.0069989	64.298	0.015553	398.38	435.93	1.9147	0.79396	1.4281	218.21	16.286	13.411	0.016792
260.03	2.4212	998.72	0.0010013	167.09	169.52	0.88982	0.93227	2.2559	652.30	0.17711	125.00	0.12467	0.0069806	64.486	0.015507	398.37	435.91	1.9143	0.79444	1.4303	218.17	16.271	13.418	0.016812
260.13	2.4277	998.26	0.0010017	167.29	169.72	0.89058	0.93228	2.2573	651.54	0.17844	124.81	0.12456	0.0069624	64.675	0.015462	398.35	435.89	1.9138	0.79493	1.4325	218.14	16.256	13.425	0.016831
260.22	2.4342	997.80	0.0010022	167.49	169.93	0.89134	0.93228	2.2587	650.78	0.17978	124.63	0.12445	0.0069442	64.864	0.015417	398.34	435.87	1.9134	0.79541	1.4346	218.10	16.241	13.432	0.016851
260.31	2.4407	997.35	0.0010027	167.68	170.13	0.89210	0.93229	2.2601	650.02	0.18111	124.44	0.12435	0.0069260	65.054	0.015372	398.33	435.85	1.9129	0.79590	1.4368	218.07	16.226	13.439	0.016870
260.40	2.4472	996.89	0.0010031	167.88	170.34	0.89287	0.93229	2.2615	649.25	0.18246	124.26	0.12424	0.0069077	65.244	0.015327	398.32	435.83	1.9124	0.79638	1.4390	218.04	16.211	13.446	0.016890
260.49	2.4538	996.43	0.0010036	168.08	170.54	0.89363	0.93230	2.2630	648.49	0.18381	124.07	0.12413	0.0068896	65.435	0.015282	398.31	435.81	1.9120	0.79687	1.4412	218.00	16.196	13.453	0.016910
260.58	2.4603	995.97	0.0010040	168.28	170.75	0.89439	0.93231	2.2644	647.72	0.18516	123.89	0.12402	0.0068714	65.626	0.015238	398.30	435.79	1.9115	0.79736	1.4434	217.97	16.181	13.460	0.016929
260.68	2.4669	995.51	0.0010045	168.47	170.95	0.89515	0.93232	2.2659	646.96	0.18652	123.70	0.12391	0.0068532	65.818	0.015194	398.29	435.77	1.9110	0.79785	1.4457	217.93	16.166	13.467	0.016949
260.77	2.4735	995.05	0.0010050	168.67	171.16	0.89592	0.93233	2.2673	646.19	0.18788	123.52	0.12380	0.0068350	66.010	0.015149	398.28	435.75	1.9106	0.79834	1.4479	217.90	16.151	13.473	0.016969
260.86	2.4801	994.59	0.0010054	168.87	171.36	0.89668	0.93234	2.2688	645.42	0.18925	123.33	0.12369	0.0068169	66.203	0.015105	398.27	435.73	1.9101	0.79883	1.4501	217.86	16.136	13.480	0.016989
260.95	2.4867	994.13	0.0010059	169.07	171.57	0.89744	0.93236	2.2702	644.65	0.19063	123.15	0.12359	0.0067987	66.396	0.015061	398.25	435.71	1.9096	0.79932	1.4524	217.83	16.121	13.487	0.017009
261.04	2.4933	993.66	0.0010064	169.26	171.77	0.89820	0.93237	2.2717	643.89	0.19201	122.96	0.12348	0.0067806	66.590	0.015017	398.24	435.68	1.9092	0.79981	1.4546	217.79	16.106	13.494	0.017029
261.14	2.4999	993.20	0.0010068	169.46	171.98	0.89897	0.93239	2.2732	643.12	0.19339	122.78	0.12337	0.0067625	66.784	0.014974	398.23	435.66	1.9087	0.80031	1.4569	217.75	16.092	13.502	0.017049
261.23	2.5066	992.74	0.0010073	169.66	172.19	0.89973	0.93240	2.2747	642.35	0.19478	122.59	0.12326	0.0067444	66.979	0.014930	398.22	435.64	1.9083	0.80080	1.4592	217.72	16.077	13.509	0.017069
261.32	2.5132	992.28	0.0010078	169.86	172.39	0.90049	0.93242	2.2761	641.57	0.19618	122.41	0.12315	0.0067263	67.175	0.014887	398.20	435.62	1.9078	0.80129	1.4615	217.68	16.062	13.516	0.017090
261.41	2.5199	991.81	0.0010083	170.06	172.60	0.90126	0.93244	2.2776	640.80	0.19758	122.23	0.12304	0.0067082	67.371	0.014843	398.19	435.60	1.9073	0.80179	1.4638	217.65	16.047	13.523	0.017110
261.50	2.5266	991.35	0.0010087	170.26	172.80	0.90202	0.93246	2.2791	640.03	0.19898	122.04	0.12293	0.0066901	67.568	0.014800	398.18	435.57	1.9069	0.80228	1.4661	217.61	16.032	13.530	0.017130
261.60	2.5333	990.88	0.0010092	170.45	173.01	0.90278	0.93248	2.2806	639.26	0.20039	121.86	0.12283	0.0066720	67.765	0.014757	398.17	435.55	1.9064	0.80278	1.4684	217.57	16.017	13.537	0.017151
261.69	2.5400	990.42	0.0010097	170.65	173.22	0.90355	0.93250	2.2822	638.48	0.20181	121.68	0.12272	0.0066539	67.962	0.014714	398.15	435.53	1.9059	0.80328	1.4707	217.54	16.002	13.544	0.017171
261.78	2.5467	989.95	0.0010102	170.85	173.42	0.90431	0.93252	2.2837	637.71	0.20323	121.50	0.12261	0.0066359	68.161	0.014671	398.14	435.50	1.9055	0.80377	1.4730	217.50	15.988	13.551	0.017192
261.87	2.5535	989.48	0.0010106	171.05	173.63	0.90507	0.93255	2.2852	636.93	0.20466	121.31	0.12250	0.0066178	68.359	0.014629	398.13	435.48	1.9050	0.80427	1.4754	217.47	15.973	13.558	0.017212
261.96	2.5602	989.02	0.0010111	171.25	173.84	0.90584	0.93257	2.2868	636.16	0.20609	121.13	0.12239	0.0065998	68.559	0.014586	398.11	435.46	1.9045	0.80477	1.4777	217.43	15.958	13.565	0.017233
262.05	2.5670	988.55	0.0010116	171.45	174.04	0.90660	0.93260	2.2883	635.38	0.20753	120.95	0.12228	0.0065818	68.759	0.014544	398.10	435.43	1.9041	0.80527	1.4801	217.39	15.943	13.573	0.017254
262.15	2.5738	988.08	0.0010121	171.65	174.25	0.90736	0.93263	2.2898	634.60	0.20897	120.77	0.12218	0.0065638	68.959	0.014501	398.09	435.41	1.9036	0.80577	1.4825	217.36	15.928	13.580	0.017275
262.24	2.5806	987.61	0.0010125	171.85	174.46	0.90813	0.93265	2.2914	633.82	0.21042	120.59	0.12207	0.0065457	69.160	0.014459	398.07	435.39	1.9031	0.80628	1.4848	217.32	15.914	13.587	0.017296
262.33	2.5874	987.14	0.0010130	172.04	174.67	0.90889	0.93268	2.2930	633.04	0.21187	120.41	0.12196	0.0065278	69.361	0.014417	398.06	435.36	1.9027	0.80678	1.4872	217.28	15.899	13.594	0.017317
262.42	2.5942	986.67	0.0010135	172.24	174.87	0.90966	0.93272	2.2945	632.26	0.21333	120.23	0.12185	0.0065098	69.564	0.014375	398.04	435.34	1.9022	0.80728	1.4896	217.24	15.884	13.601	0.017338
262.51	2.6010	986.20	0.0010140	172.44	175.08	0.91042	0.93275	2.2961	631.48	0.21480	120.05	0.12174	0.0064918	69.766	0.014334	398.03	435.31	1.9017	0.80779	1.4921	217.21	15.869	13.609	0.017359
262.61	2.6079	985.73	0.0010145	172.64	175.29	0.91118	0.93278	2.2977	630.70	0.21627	119.86	0.12163	0.0064738	69.969	0.014292	398.02	435.29	1.9013	0.80829	1.4945	217.17	15.855	13.616	0.017380
262.70	2.6147	985.26	0.0010150	172.84	175.50	0.91195	0.93282	2.2993	629.92	0.21775	119.68	0.12152	0.0064559	70.173	0.014250	398.00	435.26	1.9008	0.80880	1.4969	217.13	15.840	13.623	0.017401
262.79	2.6216	984.79	0.0010154	173.04	175.70	0.91271	0.93285	2.3009	629.13	0.21923	119.50	0.12142	0.0064379	70.377	0.014209	397.99	435.24	1.9003	0.80930	1.4994	217.09	15.825	13.630	0.017423
262.88	2.6285	984.31	0.0010159	173.24	175.91	0.91348	0.93289	2.3025	628.35	0.22072	119.32	0.12131	0.0064200	70.582	0.014168	397.97	435.21	1.8999	0.80981	1.5018	217.06	15.811	13.638	0.017444
262.97	2.6354	983.84	0.0010164	173.44	176.12	0.91424	0.93293	2.3041	627.57	0.22222	119.14	0.12120	0.0064021	70.788	0.014127	397.96	435.19	1.8994	0.81032	1.5043	217.02	15.796	13.645	0.017465
263.07	2.6423	983.37	0.0010169	173.64	176.33	0.91501	0.93297	2.3057	626.78	0.22372	118.97	0.12109	0.0063842	70.994	0.014086	397.94	435.16	1.8989	0.81082	1.5068	216.98	15.781	13.652	0.017487
263.16	2.6492	982.89	0.0010174	173.84	176.54	0.91577	0.93301	2.3074	626.00	0.22522	118.79	0.12098	0.0063662	71.201	0.014045	397.93	435.13	1.8984	0.81133	1.5092	216.94	15.767	13.659	0.017508
263.25	2.6561	982.42	0.0010179	174.04	176.74	0.91654	0.93305	2.3090	625.21	0.22673	118.61	0.12087	0.0063484	71.408	0.014004	397.91	435.11	1.8980	0.81184	1.5117	216.90	15.752	13.667	0.017530
263.34	2.6631	981.94	0.0010184	174.24	176.95	0.91730	0.93309	2.3106	624.42	0.22825	118.43	0.12076	0.0063305	71.616	0.013963	397.89	435.08	1.8975	0.81236	1.5142	216.86	15.738	13.674	0.017552
263.43	2.6701	981.47	0.0010189	174.44	177.16	0.91807	0.93314	2.3123	623.63	0.22977	118.25	0.12066	0.0063126	71.824	0.013923	397.88	435.05	1.8970	0.81287	1.5168	216.83	15.723	13.682	0.017574
263.52	2.6770	980.99	0.0010194	174.64	177.37	0.91883	0.93318	2.3139	622.84	0.23130	118.07	0.12055	0.0062947	72.033	0.013883	397.86	435.03	1.8966	0.81338	1.5193	216.79	15.708	13.689	0.017596
263.62	2.6840	980.51	0.0010199	174.84	177.58	0.91960	0.93323	2.3156	622.05	0.23284	117.89	0.12044	0.0062769	72.242	0.013842	397.85	435.00	1.8961	0.81389	1.5218	216.75	15.694	13.696	0.017618
263.71	2.6910	980.03	0.0010204	175.04	177.79	0.92036	0.93328	2.3173	621.26	0.23438	117.72	0.12033	0.0062590	72.453	0.013802	397.83	434.97	1.8956	0.81441	1.5244	216.71	15.679	13.704	0.017640
263.80	2.6980	979.56	0.0010209	175.24	178.00	0.92113	0.93332	2.3190	620.47	0.23593	117.54	0.12022	0.0062412	72.663	0.013762	397.81	434.94	1.8952	0.81492	1.5270	216.67	15.665	13.711	0.017662
263.89	2.7051	979.08	0.0010214	175.44	178.21	0.92190	0.93337	2.3207	619.68	0.23748	117.36	0.12011	0.0062234	72.875	0.013722	397.80	434.92	1.8947	0.81544	1.5295	216.63	15.650	13.719	0.017684
263.98	2.7121	978.60	0.0010219	175.65	178.42	0.92266	0.93343	2.3223	618.89	0.23904	117.18	0.12000	0.0062056	73.086	0.013682	397.78	434.89	1.8942	0.81595	1.5321	216.59	15.636	13.726	0.017706
264.08	2.7192	978.12	0.0010224	175.85	178.63	0.92343	0.93348	2.3241	618.09	0.24061	117.01	0.11990	0.0061878	73.299	0.013643	397.76	434.86	1.8937	0.81647	1.5347	216.55	15.621	13.734	0.017728
264.17	2.7262	977.64	0.0010229	176.05	178.84	0.92419	0.93353	2.3258	617.30	0.24218	116.83	0.11979	0.0061700	73.512	0.013603	397.75	434.83	1.8933	0.81699	1.5373	216.51	15.607	13.741	0.017751
264.26	2.7333	977.16	0.0010234	176.25	179.05	0.92496	0.93359	2.3275	616.51	0.24376	116.65	0.11968	0.0061522	73.726	0.013564	397.73	434.80	1.8928	0.81751	1.5399	216.47	15.592	13.748	0.017773
264.35	2.7404	976.67	0.0010239	176.45	179.26	0.92573	0.93364	2.3292	615.71	0.24534	116.48	0.11957	0.0061344	73.940	0.013524	397.71	434.77	1.8923	0.81803	1.5426	216.43	15.578	13.756	0.017796
264.44	2.7475	976.19	0.0010244	176.65	179.47	0.92649	0.93370	2.3309	614.91	0.24693	116.30	0.11946	0.0061167	74.155	0.013485	397.69	434.75	1.8918	0.81855	1.5452	216.39	15.563	13.764	0.017819
264.53	2.7546	975.71	0.0010249	176.85	179.68	0.92726	0.93376	2.3327	614.12	0.24853	116.12	0.11935	0.0060989	74.370	0.013446	397.68	434.72	1.8914	0.81907	1.5479	216.35	15.549	13.771	0.017841
264.63	2.7618	975.22	0.0010254	177.05	179.89	0.92803	0.93382	2.3344	613.32	0.25014	115.95	0.11924	0.0060812	74.587	0.013407	397.66	434.69	1.8909	0.81959	1.5505	216.31	15.534	13.779	0.017864
264.72	2.7689	974.74	0.0010259	177.26	180.10	0.92879	0.93388	2.3362	612.52	0.25175	115.77	0.11914	0.0060634	74.803	0.013368	397.64	434.66	1.8904	0.82011	1.5532	216.27	15.520	13.786	0.017887
264.81	2.7761	974.26	0.0010264	177.46	180.31	0.92956	0.93395	2.3380	611.72	0.25336	115.60	0.11903	0.0060457	75.021	0.013330	397.62	434.63	1.8899	0.82064	1.5559	216.23	15.505	13.794	0.017910
264.90	2.7833	973.77	0.0010269	177.66	180.52	0.93033	0.93401	2.3398	610.92	0.25499	115.42	0.11892	0.0060280	75.239	0.013291	397.60	434.60	1.8895	0.82116	1.5586	216.19	15.491	13.801	0.017933
264.99	2.7905	973.28	0.0010274	177.86	180.73	0.93110	0.93408	2.3415	610.12	0.25661	115.25	0.11881	0.0060103	75.457	0.013253	397.59	434.57	1.8890	0.82169	1.5613	216.15	15.476	13.809	0.017956
265.09	2.7977	972.80	0.0010280	178.06	180.94	0.93186	0.93414	2.3433	609.32	0.25825	115.07	0.11870	0.0059926	75.676	0.013214	397.57	434.54	1.8885	0.82221	1.5641	216.11	15.462	13.817	0.017979
265.18	2.8049	972.31	0.0010285	178.26	181.15	0.93263	0.93421	2.3451	608.52	0.25989	114.90	0.11859	0.0059749	75.896	0.013176	397.55	434.50	1.8880	0.82274	1.5668	216.07	15.448	13.824	0.018003
265.27	2.8121	971.82	0.0010290	178.47	181.36	0.93340	0.93428	2.3469	607.72	0.26154	114.72	0.11848	0.0059573	76.117	0.013138	397.53	434.47	1.8876	0.82327	1.5695	216.03	15.433	13.832	0.018026
265.36	2.8194	971.33	0.0010295	178.67	181.57	0.93417	0.93435	2.3488	606.91	0.26320	114.55	0.11838	0.0059396	76.338	0.013100	397.51	434.44	1.8871	0.82380	1.5723	215.99	15.419	13.840	0.018049
265.45	2.8266	970.85	0.0010300	178.87	181.78	0.93494	0.93442	2.3506	606.11	0.26486	114.37	0.11827	0.0059220	76.559	0.013062	397.49	434.41	1.8866	0.82433	1.5751	215.95	15.404	13.847	0.018073
265.55	2.8339	970.36	0.0010305	179.07	181.99	0.93570	0.93450	2.3524	605.30	0.26653	114.20	0.11816	0.0059043	76.782	0.013024	397.47	434.38	1.8861	0.82486	1.5779	215.91	15.390	13.855	0.018096
265.64	2.8412	969.87	0.0010311	179.28	182.21	0.93647	0.93457	2.3543	604.50	0.26821	114.03	0.11805	0.0058867	77.005	0.012986	397.45	434.35	1.8857	0.82539	1.5807	215.86	15.376	13.863	0.018120
265.73	2.8485	969.38	0.0010316	179.48	182.42	0.93724	0.93465	2.3561	603.69	0.26989	113.85	0.11794	0.0058691	77.228	0.012949	397.43	434.32	1.8852	0.82592	1.5835	215.82	15.361	13.871	0.018144
265.82	2.8558	968.88	0.0010321	179.68	182.63	0.93801	0.93472	2.3580	602.88	0.27158	113.68	0.11783	0.0058515	77.453	0.012911	397.41	434.28	1.8847	0.82645	1.5863	215.78	15.347	13.878	0.018168
265.91	2.8631	968.39	0.0010326	179.89	182.84	0.93878	0.93480	2.3599	602.08	0.27327	113.51	0.11772	0.0058339	77.677	0.012874	397.39	434.25	1.8842	0.82699	1.5892	215.74	15.333	13.886	0.018192
266.00	2.8705	967.90	0.0010332	180.09	183.05	0.93955	0.93488	2.3618	601.27	0.27498	113.33	0.11762	0.0058163	77.903	0.012836	397.37	434.22	1.8838	0.82752	1.5920	215.70	15.319	13.894	0.018216
266.10	2.8778	967.41	0.0010337	180.29	183.27	0.94032	0.93496	2.3636	600.46	0.27669	113.16	0.11751	0.0057988	78.129	0.012799	397.35	434.18	1.8833	0.82806	1.5949	215.66	15.304	13.902	0.018240
266.19	2.8852	966.91	0.0010342	180.49	183.48	0.94109	0.93504	2.3655	599.65	0.27841	112.99	0.11740	0.0057812	78.356	0.012762	397.33	434.15	1.8828	0.82859	1.5978	215.61	15.290	13.910	0.018264
266.28	2.8926	966.42	0.0010347	180.70	183.69	0.94186	0.93513	2.3675	598.84	0.28013	112.81	0.11729	0.0057637	78.583	0.012725	397.31	434.12	1.8823	0.82913	1.6007	215.57	15.276	13.917	0.018288
266.37	2.9000	965.92	0.0010353	180.90	183.90	0.94263	0.93521	2.3694	598.03	0.28186	112.64	0.11718	0.0057461	78.812	0.012688	397.29	434.08	1.8818	0.82967	1.6036	215.53	15.261	13.925	0.018313
266.46	2.9074	965.43	0.0010358	181.10	184.12	0.94340	0.93530	2.3713	597.21	0.28360	112.47	0.11707	0.0057286	79.040	0.012652	397.27	434.05	1.8814	0.83021	1.6065	215.49	15.247	13.933	0.018337
266.56	2.9148	964.93	0.0010363	181.31	184.33	0.94417	0.93539	2.3732	596.40	0.28535	112.30	0.11696	0.0057111	79.270	0.012615	397.24	434.02	1.8809	0.83075	1.6095	215.44	15.233	13.941	0.018362
266.65	2.9223	964.43	0.0010369	181.51	184.54	0.94494	0.93547	2.3752	595.59	0.28710	112.13	0.11686	0.0056936	79.500	0.012579	397.22	433.98	1.8804	0.83129	1.6124	215.40	15.219	13.949	0.018386
266.74	2.9297	963.93	0.0010374	181.72	184.76	0.94571	0.93556	2.3772	594.77	0.28886	111.96	0.11675	0.0056761	79.731	0.012542	397.20	433.95	1.8799	0.83183	1.6154	215.36	15.204	13.957	0.018411
266.83	2.9372	963.44	0.0010380	181.92	184.97	0.94648	0.93566	2.3791	593.96	0.29063	111.78	0.11664	0.0056586	79.962	0.012506	397.18	433.91	1.8794	0.83237	1.6184	215.31	15.190	13.965	0.018436
266.92	2.9447	962.94	0.0010385	182.12	185.18	0.94725	0.93575	2.3811	593.14	0.29240	111.61	0.11653	0.0056411	80.194	0.012470	397.16	433.88	1.8790	0.83291	1.6213	215.27	15.176	13.973	0.018461
267.02	2.9521	962.44	0.0010390	182.33	185.40	0.94802	0.93584	2.3831	592.33	0.29418	111.44	0.11642	0.0056237	80.427	0.012434	397.13	433.84	1.8785	0.83346	1.6244	215.23	15.162	13.981	0.018486
267.11	2.9597	961.94	0.0010396	182.53	185.61	0.94879	0.93594	2.3851	591.51	0.29597	111.27	0.11631	0.0056062	80.660	0.012398	397.11	433.81	1.8780	0.83400	1.6274	215.18	15.148	13.989	0.018511
267.20	2.9672	961.44	0.0010401	182.74	185.82	0.94956	0.93603	2.3871	590.69	0.29777	111.10	0.11620	0.0055888	80.895	0.012362	397.09	433.77	1.8775	0.83455	1.6304	215.14	15.133	13.997	0.018536
267.29	2.9747	960.93	0.0010407	182.94	186.04	0.95033	0.93613	2.3891	589.88	0.29957	110.93	0.11609	0.0055714	81.129	0.012326	397.07	433.73	1.8770	0.83510	1.6335	215.10	15.119	14.005	0.018561
267.38	2.9823	960.43	0.0010412	183.15	186.25	0.95110	0.93623	2.3911	589.06	0.30139	110.76	0.11599	0.0055539	81.365	0.012290	397.04	433.70	1.8765	0.83565	1.6365	215.05	15.105	14.013	0.018587
267.47	2.9898	959.93	0.0010417	183.35	186.47	0.95188	0.93633	2.3932	588.24	0.30321	110.59	0.11588	0.0055365	81.601	0.012255	397.02	433.66	1.8761	0.83620	1.6396	215.01	15.091	14.021	0.018612
267.57	2.9974	959.42	0.0010423	183.56	186.68	0.95265	0.93643	2.3952	587.42	0.30503	110.42	0.11577	0.0055191	81.838	0.012219	397.00	433.62	1.8756	0.83675	1.6427	214.97	15.077	14.029	0.018638
267.66	3.0050	958.92	0.0010428	183.76	186.89	0.95342	0.93654	2.3973	586.60	0.30687	110.25	0.11566	0.0055017	82.076	0.012184	396.97	433.59	1.8751	0.83730	1.6458	214.92	15.062	14.037	0.018664
267.75	3.0126	958.42	0.0010434	183.97	187.11	0.95419	0.93664	2.3993	585.78	0.30871	110.08	0.11555	0.0054844	82.314	0.012149	396.95	433.55	1.8746	0.83785	1.6490	214.88	15.048	14.046	0.018689
267.84	3.0202	957.91	0.0010439	184.17	187.32	0.95496	0.93674	2.4014	584.95	0.31056	109.91	0.11544	0.0054670	82.553	0.012113	396.93	433.51	1.8741	0.83840	1.6521	214.83	15.034	14.054	0.018715
267.93	3.0279	957.40	0.0010445	184.38	187.54	0.95574	0.93685	2.4035	584.13	0.31242	109.74	0.11533	0.0054497	82.792	0.012078	396.90	433.47	1.8736	0.83896	1.6553	214.79	15.020	14.062	0.018741
268.03	3.0355	956.90	0.0010450	184.58	187.75	0.95651	0.93696	2.4056	583.31	0.31429	109.57	0.11522	0.0054323	83.033	0.012043	396.88	433.44	1.8731	0.83951	1.6584	214.74	15.006	14.070	0.018767
268.12	3.0432	956.39	0.0010456	184.79	187.97	0.95728	0.93707	2.4077	582.48	0.31616	109.40	0.11512	0.0054150	83.274	0.012009	396.85	433.40	1.8727	0.84007	1.6616	214.70	14.992	14.078	0.018793
268.21	3.0509	955.88	0.0010462	184.99	188.19	0.95806	0.93718	2.4098	581.66	0.31804	109.24	0.11501	0.0053977	83.516	0.011974	396.83	433.36	1.8722	0.84062	1.6648	214.65	14.978	14.087	0.018820
268.30	3.0585	955.37	0.0010467	185.20	188.40	0.95883	0.93729	2.4120	580.83	0.31993	109.07	0.11490	0.0053804	83.758	0.011939	396.80	433.32	1.8717	0.84118	1.6681	214.61	14.964	14.095	0.018846
268.39	3.0662	954.86	0.0010473	185.41	188.62	0.95960	0.93740	2.4141	580.01	0.32183	108.90	0.11479	0.0053631	84.001	0.011905	396.78	433.28	1.8712	0.84174	1.6713	214.56	14.950	14.103	0.018872
268.49	3.0740	954.35	0.0010478	185.61	188.83	0.96038	0.93752	2.4163	579.18	0.32374	108.73	0.11468	0.0053458	84.245	0.011870	396.75	433.24	1.8707	0.84230	1.6745	214.52	14.935	14.111	0.018899
268.58	3.0817	953.84	0.0010484	185.82	189.05	0.96115	0.93764	2.4184	578.35	0.32565	108.56	0.11457	0.0053285	84.490	0.011836	396.73	433.20	1.8702	0.84286	1.6778	214.47	14.921	14.120	0.018926
268.67	3.0895	953.33	0.0010490	186.02	189.26	0.96193	0.93775	2.4206	577.53	0.32757	108.40	0.11446	0.0053113	84.735	0.011801	396.70	433.16	1.8697	0.84342	1.6811	214.43	14.907	14.128	0.018952
268.76	3.0972	952.81	0.0010495	186.23	189.48	0.96270	0.93787	2.4228	576.70	0.32950	108.23	0.11435	0.0052940	84.981	0.011767	396.68	433.12	1.8692	0.84398	1.6844	214.38	14.893	14.136	0.018979
268.85	3.1050	952.30	0.0010501	186.44	189.70	0.96348	0.93799	2.4250	575.87	0.33144	108.06	0.11425	0.0052768	85.228	0.011733	396.65	433.08	1.8687	0.84455	1.6877	214.34	14.879	14.145	0.019006
268.94	3.1128	951.79	0.0010507	186.64	189.91	0.96425	0.93811	2.4272	575.04	0.33339	107.89	0.11414	0.0052596	85.476	0.011699	396.62	433.04	1.8683	0.84511	1.6911	214.29	14.865	14.153	0.019033
269.04	3.1206	951.27	0.0010512	186.85	190.13	0.96503	0.93823	2.4294	574.21	0.33535	107.73	0.11403	0.0052423	85.724	0.011665	396.60	433.00	1.8678	0.84568	1.6944	214.24	14.851	14.162	0.019061
269.13	3.1284	950.76	0.0010518	187.06	190.35	0.96580	0.93836	2.4317	573.38	0.33731	107.56	0.11392	0.0052251	85.973	0.011632	396.57	432.96	1.8673	0.84625	1.6978	214.20	14.837	14.170	0.019088
269.22	3.1362	950.24	0.0010524	187.26	190.56	0.96658	0.93848	2.4339	572.55	0.33928	107.39	0.11381	0.0052079	86.223	0.011598	396.54	432.92	1.8668	0.84681	1.7012	214.15	14.823	14.178	0.019115
269.31	3.1441	949.72	0.0010529	187.47	190.78	0.96735	0.93861	2.4362	571.71	0.34127	107.23	0.11370	0.0051908	86.473	0.011564	396.52	432.88	1.8663	0.84738	1.7046	214.10	14.809	14.187	0.019143
269.40	3.1520	949.21	0.0010535	187.68	191.00	0.96813	0.93873	2.4384	570.88	0.34326	107.06	0.11359	0.0051736	86.724	0.011531	396.49	432.83	1.8658	0.84795	1.7080	214.06	14.795	14.195	0.019170
269.50	3.1598	948.69	0.0010541	187.89	191.22	0.96891	0.93886	2.4407	570.05	0.34525	106.89	0.11348	0.0051564	86.976	0.011497	396.46	432.79	1.8653	0.84853	1.7115	214.01	14.781	14.204	0.019198
269.59	3.1677	948.17	0.0010547	188.09	191.43	0.96968	0.93899	2.4430	569.21	0.34726	106.73	0.11338	0.0051393	87.229	0.011464	396.44	432.75	1.8648	0.84910	1.7149	213.96	14.767	14.212	0.019226
269.68	3.1756	947.65	0.0010552	188.30	191.65	0.97046	0.93912	2.4453	568.38	0.34928	106.56	0.11327	0.0051222	87.483	0.011431	396.41	432.71	1.8643	0.84967	1.7184	213.92	14.753	14.221	0.019254
269.77	3.1836	947.13	0.0010558	188.51	191.87	0.97124	0.93926	2.4476	567.54	0.35130	106.39	0.11316	0.0051050	87.737	0.011398	396.38	432.66	1.8638	0.85025	1.7219	213.87	14.739	14.230	0.019282
269.86	3.1915	946.61	0.0010564	188.72	192.09	0.97201	0.93939	2.4499	566.71	0.35334	106.23	0.11305	0.0050879	87.992	0.011365	396.35	432.62	1.8633	0.85082	1.7254	213.82	14.725	14.238	0.019310
269.95	3.1994	946.08	0.0010570	188.92	192.31	0.97279	0.93952	2.4523	565.87	0.35538	106.06	0.11294	0.0050708	88.248	0.011332	396.32	432.58	1.8628	0.85140	1.7290	213.77	14.711	14.247	0.019339
270.05	3.2074	945.56	0.0010576	189.13	192.52	0.97357	0.93966	2.4546	565.03	0.35743	105.90	0.11283	0.0050537	88.504	0.011299	396.29	432.53	1.8623	0.85198	1.7325	213.73	14.697	14.255	0.019367
270.14	3.2154	945.04	0.0010582	189.34	192.74	0.97435	0.93980	2.4570	564.20	0.35949	105.73	0.11272	0.0050367	88.762	0.011266	396.27	432.49	1.8618	0.85255	1.7361	213.68	14.683	14.264	0.019396
270.23	3.2234	944.51	0.0010587	189.55	192.96	0.97513	0.93993	2.4594	563.36	0.36156	105.57	0.11261	0.0050196	89.020	0.011233	396.24	432.45	1.8613	0.85313	1.7397	213.63	14.669	14.273	0.019424
270.32	3.2314	943.99	0.0010593	189.76	193.18	0.97590	0.94007	2.4618	562.52	0.36364	105.40	0.11250	0.0050025	89.279	0.011201	396.21	432.40	1.8608	0.85372	1.7433	213.58	14.655	14.282	0.019453
270.41	3.2394	943.46	0.0010599	189.97	193.40	0.97668	0.94021	2.4642	561.68	0.36573	105.24	0.11240	0.0049855	89.538	0.011168	396.18	432.36	1.8604	0.85430	1.7469	213.54	14.641	14.290	0.019482
270.51	3.2474	942.93	0.0010605	190.18	193.62	0.97746	0.94036	2.4666	560.84	0.36783	105.07	0.11229	0.0049685	89.799	0.011136	396.15	432.31	1.8599	0.85488	1.7506	213.49	14.627	14.299	0.019511
270.60	3.2555	942.41	0.0010611	190.38	193.84	0.97824	0.94050	2.4690	560.00	0.36994	104.91	0.11218	0.0049515	90.060	0.011104	396.12	432.27	1.8594	0.85547	1.7542	213.44	14.613	14.308	0.019540
270.69	3.2636	941.88	0.0010617	190.59	194.06	0.97902	0.94064	2.4715	559.16	0.37206	104.74	0.11207	0.0049344	90.322	0.011071	396.09	432.22	1.8589	0.85605	1.7579	213.39	14.599	14.317	0.019569
270.78	3.2717	941.35	0.0010623	190.80	194.28	0.97980	0.94079	2.4739	558.32	0.37418	104.58	0.11196	0.0049175	90.585	0.011039	396.06	432.17	1.8584	0.85664	1.7616	213.34	14.585	14.325	0.019599
270.87	3.2797	940.82	0.0010629	191.01	194.50	0.98058	0.94094	2.4764	557.48	0.37632	104.42	0.11185	0.0049005	90.849	0.011007	396.03	432.13	1.8579	0.85723	1.7654	213.29	14.571	14.334	0.019628
270.97	3.2879	940.29	0.0010635	191.22	194.72	0.98136	0.94108	2.4789	556.63	0.37846	104.25	0.11174	0.0048835	91.113	0.010975	396.00	432.08	1.8574	0.85782	1.7691	213.24	14.557	14.343	0.019658
271.06	3.2960	939.76	0.0010641	191.43	194.94	0.98214	0.94123	2.4814	555.79	0.38062	104.09	0.11163	0.0048665	91.378	0.010944	395.97	432.04	1.8569	0.85841	1.7729	213.20	14.543	14.352	0.019687
271.15	3.3041	939.23	0.0010647	191.64	195.16	0.98292	0.94138	2.4839	554.95	0.38278	103.93	0.11152	0.0048496	91.644	0.010912	395.93	431.99	1.8564	0.85900	1.7767	213.15	14.530	14.361	0.019717
271.24	3.3123	938.69	0.0010653	191.85	195.38	0.98370	0.94153	2.4864	554.10	0.38496	103.76	0.11142	0.0048327	91.911	0.010880	395.90	431.94	1.8559	0.85959	1.7805	213.10	14.516	14.370	0.019747
271.33	3.3205	938.16	0.0010659	192.06	195.60	0.98448	0.94169	2.4890	553.26	0.38714	103.60	0.11131	0.0048157	92.179	0.010848	395.87	431.89	1.8553	0.86019	1.7843	213.05	14.502	14.379	0.019777
271.42	3.3286	937.62	0.0010665	192.27	195.82	0.98527	0.94184	2.4915	552.41	0.38934	103.44	0.11120	0.0047988	92.447	0.010817	395.84	431.85	1.8548	0.86078	1.7882	213.00	14.488	14.388	0.019808
271.52	3.3368	937.09	0.0010671	192.48	196.04	0.98605	0.94199	2.4941	551.57	0.39154	103.27	0.11109	0.0047819	92.717	0.010786	395.81	431.80	1.8543	0.86138	1.7920	212.95	14.474	14.397	0.019838
271.61	3.3451	936.55	0.0010677	192.69	196.26	0.98683	0.94215	2.4967	550.72	0.39376	103.11	0.11098	0.0047651	92.987	0.010754	395.78	431.75	1.8538	0.86198	1.7959	212.90	14.460	14.406	0.019869
271.70	3.3533	936.02	0.0010684	192.90	196.48	0.98761	0.94231	2.4993	549.87	0.39598	102.95	0.11087	0.0047482	93.258	0.010723	395.74	431.70	1.8533	0.86257	1.7999	212.85	14.446	14.415	0.019899
271.79	3.3615	935.48	0.0010690	193.11	196.71	0.98840	0.94246	2.5019	549.03	0.39822	102.79	0.11076	0.0047313	93.530	0.010692	395.71	431.65	1.8528	0.86318	1.8038	212.80	14.432	14.424	0.019930
271.88	3.3698	934.94	0.0010696	193.32	196.93	0.98918	0.94262	2.5045	548.18	0.40046	102.62	0.11065	0.0047145	93.802	0.010661	395.68	431.60	1.8523	0.86378	1.8078	212.75	14.418	14.433	0.019961
271.98	3.3781	934.40	0.0010702	193.53	197.15	0.98996	0.94278	2.5072	547.33	0.40272	102.46	0.11054	0.0046976	94.076	0.010630	395.64	431.55	1.8518	0.86438	1.8118	212.70	14.404	14.442	0.019992
272.07	3.3864	933.86	0.0010708	193.74	197.37	0.99075	0.94295	2.5098	546.48	0.40499	102.30	0.11043	0.0046808	94.350	0.010599	395.61	431.50	1.8513	0.86498	1.8158	212.65	14.390	14.451	0.020023
272.16	3.3947	933.32	0.0010714	193.96	197.59	0.99153	0.94311	2.5125	545.63	0.40726	102.14	0.11033	0.0046640	94.625	0.010568	395.58	431.45	1.8508	0.86559	1.8198	212.60	14.377	14.461	0.020054
272.25	3.4030	932.78	0.0010721	194.17	197.82	0.99231	0.94327	2.5152	544.78	0.40955	101.98	0.11022	0.0046472	94.901	0.010537	395.54	431.40	1.8503	0.86620	1.8238	212.55	14.363	14.470	0.020086
272.34	3.4113	932.23	0.0010727	194.38	198.04	0.99310	0.94344	2.5179	543.93	0.41185	101.81	0.11011	0.0046304	95.178	0.010507	395.51	431.35	1.8498	0.86680	1.8279	212.49	14.349	14.479	0.020117
272.44	3.4197	931.69	0.0010733	194.59	198.26	0.99388	0.94360	2.5206	543.08	0.41416	101.65	0.11000	0.0046136	95.456	0.010476	395.48	431.30	1.8493	0.86741	1.8320	212.44	14.335	14.488	0.020149
272.53	3.4280	931.15	0.0010739	194.80	198.48	0.99467	0.94377	2.5233	542.23	0.41647	101.49	0.10989	0.0045969	95.735	0.010446	395.44	431.25	1.8488	0.86802	1.8361	212.39	14.321	14.497	0.020181
272.62	3.4364	930.60	0.0010746	195.01	198.71	0.99545	0.94394	2.5261	541.38	0.41880	101.33	0.10978	0.0045801	96.014	0.010415	395.41	431.20	1.8483	0.86864	1.8403	212.34	14.307	14.507	0.020213
272.71	3.4448	930.05	0.0010752	195.23	198.93	0.99624	0.94411	2.5289	540.53	0.42115	101.17	0.10967	0.0045634	96.295	0.010385	395.37	431.15	1.8477	0.86925	1.8445	212.29	14.293	14.516	0.020245
272.80	3.4532	929.51	0.0010758	195.44	199.15	0.99703	0.94428	2.5316	539.67	0.42350	101.01	0.10956	0.0045466	96.576	0.010355	395.34	431.09	1.8472	0.86986	1.8487	212.24	14.279	14.525	0.020277
272.89	3.4616	928.96	0.0010765	195.65	199.38	0.99781	0.94445	2.5344	538.82	0.42586	100.85	0.10945	0.0045299	96.858	0.010324	395.30	431.04	1.8467	0.87048	1.8529	212.19	14.265	14.535	0.020310
272.99	3.4701	928.41	0.0010771	195.86	199.60	0.99860	0.94462	2.5373	537.97	0.42824	100.69	0.10934	0.0045132	97.141	0.010294	395.27	430.99	1.8462	0.87110	1.8571	212.13	14.252	14.544	0.020342
273.08	3.4785	927.86	0.0010777	196.08	199.82	0.99939	0.94479	2.5401	537.11	0.43062	100.53	0.10923	0.0044965	97.425	0.010264	395.23	430.94	1.8457	0.87172	1.8614	212.08	14.238	14.554	0.020375
273.17	3.4870	927.31	0.0010784	196.29	200.05	1.0002	0.94497	2.5429	536.26	0.43302	100.37	0.10913	0.0044799	97.710	0.010234	395.19	430.88	1.8452	0.87234	1.8657	212.03	14.224	14.563	0.020408
273.26	3.4955	926.76	0.0010790	196.50	200.27	1.0010	0.94514	2.5458	535.40	0.43543	100.21	0.10902	0.0044632	97.996	0.010205	395.16	430.83	1.8447	0.87296	1.8700	211.98	14.210	14.573	0.020441
273.35	3.5040	926.21	0.0010797	196.71	200.50	1.0017	0.94532	2.5487	534.55	0.43785	100.04	0.10891	0.0044466	98.282	0.010175	395.12	430.77	1.8442	0.87358	1.8744	211.92	14.196	14.582	0.020474
273.45	3.5125	925.65	0.0010803	196.93	200.72	1.0025	0.94550	2.5516	533.69	0.44028	99.885	0.10880	0.0044299	98.570	0.010145	395.08	430.72	1.8436	0.87421	1.8787	211.87	14.182	14.592	0.020507
273.54	3.5210	925.10	0.0010810	197.14	200.95	1.0033	0.94568	2.5545	532.83	0.44272	99.725	0.10869	0.0044133	98.858	0.010115	395.05	430.66	1.8431	0.87483	1.8831	211.82	14.168	14.601	0.020541
273.63	3.5296	924.55	0.0010816	197.36	201.17	1.0041	0.94586	2.5574	531.98	0.44517	99.565	0.10858	0.0043967	99.148	0.010086	395.01	430.61	1.8426	0.87546	1.8876	211.77	14.154	14.611	0.020574
273.72	3.5381	923.99	0.0010823	197.57	201.40	1.0049	0.94604	2.5604	531.12	0.44764	99.406	0.10847	0.0043801	99.438	0.010057	394.97	430.55	1.8421	0.87609	1.8920	211.71	14.141	14.620	0.020608
273.81	3.5467	923.43	0.0010829	197.78	201.62	1.0057	0.94622	2.5633	530.26	0.45012	99.246	0.10836	0.0043635	99.729	0.010027	394.94	430.50	1.8416	0.87672	1.8965	211.66	14.127	14.630	0.020642
273.91	3.5553	922.88	0.0010836	198.00	201.85	1.0065	0.94640	2.5663	529.40	0.45261	99.087	0.10825	0.0043469	100.02	0.0099979	394.90	430.44	1.8411	0.87735	1.9010	211.61	14.113	14.640	0.020676
274.00	3.5639	922.32	0.0010842	198.21	202.08	1.0073	0.94658	2.5693	528.54	0.45511	98.928	0.10814	0.0043304	100.31	0.0099687	394.86	430.39	1.8405	0.87798	1.9055	211.55	14.099	14.650	0.020710
274.09	3.5725	921.76	0.0010849	198.43	202.30	1.0081	0.94677	2.5724	527.68	0.45762	98.769	0.10803	0.0043138	100.61	0.0099395	394.82	430.33	1.8400	0.87862	1.9101	211.50	14.085	14.659	0.020745
274.18	3.5812	921.20	0.0010855	198.64	202.53	1.0089	0.94695	2.5754	526.82	0.46015	98.610	0.10792	0.0042973	100.90	0.0099105	394.78	430.27	1.8395	0.87926	1.9147	211.45	14.071	14.669	0.020779
274.27	3.5898	920.64	0.0010862	198.85	202.75	1.0096	0.94714	2.5784	525.96	0.46269	98.451	0.10781	0.0042807	101.20	0.0098815	394.74	430.22	1.8390	0.87989	1.9193	211.39	14.057	14.679	0.020814
274.36	3.5985	920.07	0.0010869	199.07	202.98	1.0104	0.94733	2.5815	525.10	0.46524	98.292	0.10770	0.0042642	101.50	0.0098526	394.70	430.16	1.8385	0.88053	1.9240	211.34	14.043	14.689	0.020849
274.46	3.6072	919.51	0.0010875	199.28	203.21	1.0112	0.94752	2.5846	524.24	0.46780	98.133	0.10760	0.0042477	101.79	0.0098238	394.66	430.10	1.8379	0.88117	1.9286	211.28	14.030	14.698	0.020884
274.55	3.6159	918.95	0.0010882	199.50	203.43	1.0120	0.94770	2.5877	523.38	0.47038	97.975	0.10749	0.0042313	102.09	0.0097950	394.62	430.04	1.8374	0.88182	1.9333	211.23	14.016	14.708	0.020919
274.64	3.6246	918.38	0.0010889	199.71	203.66	1.0128	0.94789	2.5909	522.52	0.47297	97.817	0.10738	0.0042148	102.39	0.0097664	394.58	429.98	1.8369	0.88246	1.9381	211.17	14.002	14.718	0.020954
274.73	3.6333	917.81	0.0010895	199.93	203.89	1.0136	0.94809	2.5940	521.66	0.47557	97.658	0.10727	0.0041983	102.69	0.0097378	394.54	429.92	1.8364	0.88311	1.9428	211.12	13.988	14.728	0.020990
274.82	3.6421	917.25	0.0010902	200.15	204.12	1.0144	0.94828	2.5972	520.79	0.47819	97.500	0.10716	0.0041819	102.99	0.0097092	394.50	429.87	1.8358	0.88375	1.9476	211.06	13.974	14.738	0.021026
274.92	3.6509	916.68	0.0010909	200.36	204.34	1.0152	0.94847	2.6004	519.93	0.48081	97.342	0.10705	0.0041654	103.30	0.0096808	394.46	429.81	1.8353	0.88440	1.9524	211.01	13.960	14.748	0.021062
275.01	3.6596	916.11	0.0010916	200.58	204.57	1.0160	0.94866	2.6036	519.07	0.48345	97.184	0.10694	0.0041490	103.60	0.0096524	394.42	429.75	1.8348	0.88505	1.9573	210.95	13.946	14.758	0.021098
275.10	3.6684	915.54	0.0010923	200.79	204.80	1.0168	0.94886	2.6068	518.20	0.48611	97.027	0.10683	0.0041326	103.91	0.0096241	394.38	429.69	1.8343	0.88570	1.9622	210.90	13.932	14.768	0.021134
275.19	3.6772	914.97	0.0010929	201.01	205.03	1.0176	0.94906	2.6101	517.34	0.48877	96.869	0.10672	0.0041162	104.21	0.0095959	394.34	429.63	1.8337	0.88636	1.9671	210.84	13.919	14.778	0.021170
275.28	3.6861	914.40	0.0010936	201.23	205.26	1.0184	0.94925	2.6133	516.47	0.49145	96.711	0.10661	0.0040998	104.52	0.0095677	394.30	429.56	1.8332	0.88701	1.9720	210.79	13.905	14.788	0.021207
275.37	3.6949	913.83	0.0010943	201.44	205.49	1.0192	0.94945	2.6166	515.61	0.49415	96.554	0.10650	0.0040835	104.83	0.0095396	394.26	429.50	1.8327	0.88767	1.9770	210.73	13.891	14.799	0.021244
275.47	3.7038	913.25	0.0010950	201.66	205.72	1.0200	0.94965	2.6200	514.74	0.49685	96.397	0.10639	0.0040671	105.13	0.0095116	394.21	429.44	1.8321	0.88833	1.9820	210.68	13.877	14.809	0.021281
275.56	3.7126	912.68	0.0010957	201.88	205.94	1.0208	0.94985	2.6233	513.88	0.49957	96.239	0.10628	0.0040508	105.44	0.0094837	394.17	429.38	1.8316	0.88899	1.9871	210.62	13.863	14.819	0.021318
275.65	3.7215	912.10	0.0010964	202.09	206.17	1.0216	0.95005	2.6266	513.01	0.50231	96.082	0.10617	0.0040345	105.75	0.0094558	394.13	429.32	1.8311	0.88965	1.9921	210.56	13.849	14.829	0.021355
275.74	3.7304	911.52	0.0010971	202.31	206.40	1.0224	0.95025	2.6300	512.14	0.50506	95.925	0.10606	0.0040181	106.07	0.0094281	394.08	429.26	1.8305	0.89031	1.9972	210.51	13.835	14.840	0.021392
275.83	3.7393	910.95	0.0010978	202.53	206.63	1.0232	0.95045	2.6334	511.28	0.50782	95.768	0.10595	0.0040018	106.38	0.0094003	394.04	429.19	1.8300	0.89098	2.0024	210.45	13.821	14.850	0.021430
275.93	3.7483	910.37	0.0010985	202.75	206.86	1.0240	0.95065	2.6368	510.41	0.51059	95.612	0.10584	0.0039856	106.69	0.0093727	394.00	429.13	1.8295	0.89165	2.0076	210.39	13.807	14.860	0.021468
276.02	3.7572	909.79	0.0010992	202.96	207.09	1.0248	0.95086	2.6403	509.54	0.51338	95.455	0.10573	0.0039693	107.01	0.0093451	393.95	429.07	1.8289	0.89231	2.0128	210.34	13.793	14.871	0.021506
276.11	3.7662	909.21	0.0010999	203.18	207.32	1.0256	0.95106	2.6437	508.67	0.51619	95.298	0.10563	0.0039530	107.32	0.0093176	393.91	429.00	1.8284	0.89298	2.0180	210.28	13.780	14.881	0.021544
276.20	3.7752	908.62	0.0011006	203.40	207.56	1.0264	0.95127	2.6472	507.80	0.51901	95.142	0.10552	0.0039368	107.64	0.0092902	393.86	428.94	1.8279	0.89366	2.0233	210.22	13.766	14.891	0.021583
276.29	3.7842	908.04	0.0011013	203.62	207.79	1.0272	0.95147	2.6507	506.93	0.52184	94.986	0.10541	0.0039205	107.96	0.0092628	393.82	428.87	1.8273	0.89433	2.0286	210.17	13.752	14.902	0.021621
276.39	3.7932	907.46	0.0011020	203.84	208.02	1.0280	0.95168	2.6543	506.06	0.52469	94.829	0.10530	0.0039043	108.28	0.0092355	393.77	428.81	1.8268	0.89501	2.0339	210.11	13.738	14.912	0.021660
276.48	3.8022	906.87	0.0011027	204.06	208.25	1.0288	0.95189	2.6578	505.19	0.52755	94.673	0.10519	0.0038881	108.60	0.0092083	393.73	428.74	1.8263	0.89568	2.0393	210.05	13.724	14.923	0.021699
276.57	3.8113	906.29	0.0011034	204.28	208.48	1.0296	0.95210	2.6614	504.32	0.53043	94.517	0.10508	0.0038719	108.92	0.0091811	393.68	428.68	1.8257	0.89636	2.0447	209.99	13.710	14.934	0.021738
276.66	3.8203	905.70	0.0011041	204.49	208.71	1.0304	0.95231	2.6650	503.45	0.53332	94.361	0.10497	0.0038558	109.24	0.0091540	393.64	428.61	1.8252	0.89704	2.0502	209.94	13.696	14.944	0.021777
276.75	3.8294	905.11	0.0011048	204.71	208.94	1.0312	0.95252	2.6686	502.58	0.53622	94.205	0.10486	0.0038396	109.56	0.0091270	393.59	428.54	1.8246	0.89773	2.0557	209.88	13.682	14.955	0.021817
276.84	3.8385	904.52	0.0011056	204.93	209.18	1.0320	0.95273	2.6723	501.71	0.53915	94.050	0.10475	0.0038234	109.89	0.0091001	393.55	428.48	1.8241	0.89841	2.0612	209.82	13.668	14.965	0.021857
276.94	3.8476	903.93	0.0011063	205.15	209.41	1.0328	0.95294	2.6759	500.84	0.54208	93.894	0.10464	0.0038073	110.21	0.0090732	393.50	428.41	1.8236	0.89910	2.0668	209.76	13.654	14.976	0.021897
277.03	3.8567	903.34	0.0011070	205.37	209.64	1.0336	0.95315	2.6796	499.96	0.54503	93.738	0.10453	0.0037912	110.54	0.0090464	393.45	428.34	1.8230	0.89979	2.0724	209.70	13.640	14.987	0.021937
277.12	3.8659	902.75	0.0011077	205.59	209.87	1.0344	0.95337	2.6834	499.09	0.54800	93.583	0.10442	0.0037751	110.87	0.0090196	393.40	428.27	1.8225	0.90048	2.0780	209.64	13.626	14.998	0.021977
277.21	3.8750	902.15	0.0011085	205.81	210.11	1.0352	0.95358	2.6871	498.22	0.55099	93.428	0.10431	0.0037590	111.20	0.0089930	393.36	428.20	1.8219	0.90117	2.0837	209.58	13.612	15.009	0.022018
277.30	3.8842	901.56	0.0011092	206.03	210.34	1.0360	0.95380	2.6909	497.35	0.55398	93.272	0.10420	0.0037429	111.53	0.0089664	393.31	428.14	1.8214	0.90186	2.0894	209.53	13.598	15.019	0.022059
277.40	3.8934	900.96	0.0011099	206.25	210.57	1.0368	0.95401	2.6947	496.47	0.55700	93.117	0.10409	0.0037268	111.86	0.0089398	393.26	428.07	1.8208	0.90256	2.0952	209.47	13.584	15.030	0.022100
277.49	3.9026	900.37	0.0011107	206.47	210.81	1.0376	0.95423	2.6985	495.60	0.56003	92.962	0.10398	0.0037108	112.19	0.0089133	393.21	428.00	1.8203	0.90326	2.1010	209.41	13.570	15.041	0.022141
277.58	3.9118	899.77	0.0011114	206.70	211.04	1.0384	0.95445	2.7023	494.72	0.56308	92.807	0.10387	0.0036947	112.52	0.0088869	393.16	427.93	1.8197	0.90396	2.1068	209.35	13.556	15.052	0.022183
277.67	3.9211	899.17	0.0011121	206.92	211.28	1.0392	0.95466	2.7062	493.85	0.56614	92.652	0.10376	0.0036787	112.86	0.0088606	393.11	427.86	1.8192	0.90466	2.1127	209.29	13.542	15.063	0.022224
277.76	3.9303	898.57	0.0011129	207.14	211.51	1.0400	0.95488	2.7101	492.97	0.56922	92.497	0.10365	0.0036627	113.20	0.0088343	393.06	427.79	1.8186	0.90536	2.1186	209.23	13.528	15.074	0.022266
277.86	3.9396	897.97	0.0011136	207.36	211.75	1.0408	0.95510	2.7141	492.10	0.57231	92.343	0.10354	0.0036467	113.53	0.0088081	393.01	427.72	1.8181	0.90607	2.1246	209.17	13.514	15.085	0.022308
277.95	3.9489	897.36	0.0011144	207.58	211.98	1.0416	0.95532	2.7180	491.22	0.57543	92.188	0.10343	0.0036307	113.87	0.0087819	392.96	427.64	1.8175	0.90678	2.1306	209.11	13.500	15.096	0.022351
278.04	3.9582	896.76	0.0011151	207.80	212.22	1.0424	0.95555	2.7220	490.34	0.57856	92.034	0.10332	0.0036148	114.21	0.0087559	392.91	427.57	1.8170	0.90749	2.1366	209.05	13.486	15.108	0.022393
278.13	3.9675	896.16	0.0011159	208.02	212.45	1.0433	0.95577	2.7260	489.47	0.58170	91.879	0.10321	0.0035988	114.55	0.0087298	392.86	427.50	1.8164	0.90820	2.1427	208.99	13.472	15.119	0.022436
278.22	3.9769	895.55	0.0011166	208.25	212.69	1.0441	0.95599	2.7300	488.59	0.58486	91.725	0.10310	0.0035829	114.89	0.0087039	392.81	427.43	1.8159	0.90892	2.1489	208.93	13.458	15.130	0.022479
278.31	3.9862	894.94	0.0011174	208.47	212.92	1.0449	0.95621	2.7341	487.71	0.58804	91.570	0.10299	0.0035669	115.23	0.0086780	392.76	427.35	1.8153	0.90963	2.1551	208.87	13.444	15.141	0.022522
278.41	3.9956	894.33	0.0011182	208.69	213.16	1.0457	0.95644	2.7382	486.83	0.59124	91.416	0.10288	0.0035510	115.58	0.0086522	392.71	427.28	1.8148	0.91035	2.1613	208.80	13.430	15.153	0.022566
278.50	4.0050	893.72	0.0011189	208.92	213.40	1.0465	0.95666	2.7423	485.96	0.59445	91.262	0.10277	0.0035351	115.92	0.0086264	392.66	427.21	1.8142	0.91107	2.1675	208.74	13.416	15.164	0.022609
278.59	4.0144	893.11	0.0011197	209.14	213.63	1.0473	0.95689	2.7465	485.08	0.59769	91.108	0.10266	0.0035192	116.27	0.0086007	392.61	427.13	1.8137	0.91179	2.1739	208.68	13.402	15.175	0.022653
278.68	4.0238	892.50	0.0011204	209.36	213.87	1.0481	0.95712	2.7507	484.20	0.60094	90.954	0.10255	0.0035034	116.62	0.0085751	392.55	427.06	1.8131	0.91252	2.1802	208.62	13.388	15.187	0.022698
278.77	4.0332	891.89	0.0011212	209.59	214.11	1.0489	0.95735	2.7549	483.32	0.60420	90.800	0.10244	0.0034875	116.97	0.0085495	392.50	426.98	1.8125	0.91324	2.1866	208.56	13.374	15.198	0.022742
278.87	4.0427	891.27	0.0011220	209.81	214.35	1.0497	0.95757	2.7591	482.44	0.60749	90.646	0.10233	0.0034717	117.32	0.0085240	392.45	426.91	1.8120	0.91397	2.1931	208.50	13.360	15.210	0.022787
278.96	4.0521	890.66	0.0011228	210.03	214.58	1.0506	0.95780	2.7634	481.56	0.61079	90.493	0.10222	0.0034559	117.67	0.0084985	392.39	426.83	1.8114	0.91471	2.1996	208.43	13.346	15.221	0.022832
279.05	4.0616	890.04	0.0011235	210.26	214.82	1.0514	0.95803	2.7677	480.68	0.61411	90.339	0.10211	0.0034401	118.02	0.0084732	392.34	426.76	1.8109	0.91544	2.2061	208.37	13.332	15.233	0.022877
279.14	4.0711	889.42	0.0011243	210.48	215.06	1.0522	0.95826	2.7720	479.80	0.61745	90.186	0.10200	0.0034243	118.37	0.0084478	392.29	426.68	1.8103	0.91617	2.2127	208.31	13.317	15.245	0.022922
279.23	4.0806	888.80	0.0011251	210.71	215.30	1.0530	0.95850	2.7764	478.92	0.62081	90.032	0.10189	0.0034085	118.73	0.0084226	392.23	426.60	1.8097	0.91691	2.2194	208.25	13.303	15.256	0.022968
279.33	4.0902	888.18	0.0011259	210.93	215.54	1.0538	0.95873	2.7808	478.03	0.62419	89.879	0.10178	0.0033927	119.09	0.0083974	392.18	426.52	1.8092	0.91765	2.2261	208.18	13.289	15.268	0.023014
279.42	4.0997	887.56	0.0011267	211.16	215.78	1.0546	0.95896	2.7852	477.15	0.62758	89.725	0.10167	0.0033770	119.44	0.0083722	392.12	426.45	1.8086	0.91840	2.2328	208.12	13.275	15.280	0.023060
279.51	4.1093	886.94	0.0011275	211.38	216.01	1.0555	0.95919	2.7897	476.27	0.63100	89.572	0.10156	0.0033612	119.80	0.0083471	392.07	426.37	1.8080	0.91914	2.2396	208.06	13.261	15.292	0.023107
279.60	4.1189	886.31	0.0011283	211.61	216.25	1.0563	0.95943	2.7942	475.39	0.63443	89.419	0.10145	0.0033455	120.16	0.0083221	392.01	426.29	1.8075	0.91989	2.2465	208.00	13.247	15.303	0.023153
279.69	4.1285	885.69	0.0011291	211.83	216.49	1.0571	0.95966	2.7987	474.50	0.63788	89.266	0.10134	0.0033298	120.52	0.0082972	391.95	426.21	1.8069	0.92064	2.2534	207.93	13.232	15.315	0.023200
279.78	4.1381	885.06	0.0011299	212.06	216.73	1.0579	0.95990	2.8033	473.62	0.64136	89.113	0.10123	0.0033141	120.89	0.0082722	391.90	426.13	1.8063	0.92139	2.2603	207.87	13.218	15.327	0.023248
279.88	4.1477	884.43	0.0011307	212.28	216.97	1.0587	0.96014	2.8079	472.73	0.64485	88.960	0.10112	0.0032984	121.25	0.0082474	391.84	426.05	1.8058	0.92214	2.2673	207.80	13.204	15.339	0.023295
279.97	4.1574	883.80	0.0011315	212.51	217.22	1.0596	0.96038	2.8125	471.85	0.64836	88.807	0.10101	0.0032828	121.62	0.0082226	391.78	425.97	1.8052	0.92290	2.2744	207.74	13.190	15.351	0.023343
280.06	4.1670	883.17	0.0011323	212.74	217.46	1.0604	0.96061	2.8172	470.97	0.65189	88.654	0.10090	0.0032671	121.98	0.0081979	391.73	425.89	1.8046	0.92366	2.2815	207.68	13.176	15.363	0.023391
280.15	4.1767	882.54	0.0011331	212.96	217.70	1.0612	0.96085	2.8219	470.08	0.65544	88.501	0.10079	0.0032515	122.35	0.0081732	391.67	425.81	1.8040	0.92442	2.2887	207.61	13.161	15.376	0.023439
280.24	4.1864	881.91	0.0011339	213.19	217.94	1.0620	0.96109	2.8266	469.20	0.65902	88.348	0.10068	0.0032359	122.72	0.0081486	391.61	425.72	1.8035	0.92518	2.2959	207.55	13.147	15.388	0.023488
280.34	4.1962	881.27	0.0011347	213.42	218.18	1.0628	0.96133	2.8314	468.31	0.66261	88.196	0.10057	0.0032203	123.09	0.0081241	391.55	425.64	1.8029	0.92595	2.3032	207.48	13.133	15.400	0.023537
280.43	4.2059	880.63	0.0011355	213.65	218.42	1.0637	0.96158	2.8362	467.42	0.66622	88.043	0.10046	0.0032047	123.46	0.0080996	391.49	425.56	1.8023	0.92672	2.3105	207.42	13.119	15.412	0.023586
280.52	4.2156	880.00	0.0011364	213.87	218.66	1.0645	0.96182	2.8410	466.54	0.66985	87.890	0.10035	0.0031891	123.84	0.0080752	391.43	425.48	1.8017	0.92749	2.3179	207.35	13.104	15.424	0.023635
280.61	4.2254	879.36	0.0011372	214.10	218.91	1.0653	0.96206	2.8459	465.65	0.67351	87.738	0.10024	0.0031736	124.21	0.0080508	391.37	425.39	1.8012	0.92826	2.3254	207.29	13.090	15.437	0.023685
280.70	4.2352	878.72	0.0011380	214.33	219.15	1.0661	0.96231	2.8508	464.76	0.67719	87.585	0.10013	0.0031580	124.59	0.0080265	391.31	425.31	1.8006	0.92904	2.3329	207.22	13.076	15.449	0.023735
280.79	4.2450	878.08	0.0011389	214.56	219.39	1.0670	0.96255	2.8558	463.87	0.68088	87.433	0.10002	0.0031425	124.97	0.0080022	391.25	425.22	1.8000	0.92982	2.3405	207.16	13.061	15.462	0.023786
280.89	4.2548	877.43	0.0011397	214.79	219.64	1.0678	0.96280	2.8608	462.99	0.68460	87.281	0.099907	0.0031270	125.34	0.0079780	391.19	425.14	1.7994	0.93060	2.3481	207.09	13.047	15.474	0.023836
280.98	4.2647	876.79	0.0011405	215.02	219.88	1.0686	0.96304	2.8658	462.10	0.68834	87.128	0.099797	0.0031115	125.73	0.0079539	391.13	425.05	1.7988	0.93138	2.3558	207.02	13.033	15.487	0.023887
281.07	4.2745	876.14	0.0011414	215.25	220.12	1.0695	0.96329	2.8709	461.21	0.69210	86.976	0.099686	0.0030961	126.11	0.0079298	391.07	424.97	1.7982	0.93217	2.3636	206.96	13.018	15.499	0.023938
281.16	4.2844	875.49	0.0011422	215.47	220.37	1.0703	0.96354	2.8760	460.32	0.69589	86.824	0.099576	0.0030806	126.49	0.0079057	391.01	424.88	1.7977	0.93296	2.3714	206.89	13.004	15.512	0.023990
281.25	4.2943	874.85	0.0011431	215.70	220.61	1.0711	0.96379	2.8812	459.43	0.69969	86.672	0.099466	0.0030651	126.88	0.0078817	390.95	424.79	1.7971	0.93375	2.3793	206.83	12.989	15.525	0.024042
281.35	4.3042	874.19	0.0011439	215.93	220.86	1.0719	0.96404	2.8864	458.54	0.70352	86.520	0.099355	0.0030497	127.26	0.0078578	390.88	424.70	1.7965	0.93455	2.3873	206.76	12.975	15.537	0.024094
281.44	4.3141	873.54	0.0011448	216.16	221.10	1.0728	0.96429	2.8916	457.65	0.70738	86.368	0.099245	0.0030343	127.65	0.0078339	390.82	424.62	1.7959	0.93535	2.3953	206.69	12.961	15.550	0.024147
281.53	4.3240	872.89	0.0011456	216.39	221.35	1.0736	0.96454	2.8969	456.76	0.71125	86.216	0.099134	0.0030189	128.04	0.0078101	390.76	424.53	1.7953	0.93615	2.4034	206.62	12.946	15.563	0.024199
281.62	4.3340	872.24	0.0011465	216.63	221.59	1.0744	0.96479	2.9022	455.87	0.71515	86.064	0.099024	0.0030035	128.43	0.0077864	390.69	424.44	1.7947	0.93695	2.4115	206.56	12.932	15.576	0.024253
281.71	4.3440	871.58	0.0011473	216.86	221.84	1.0753	0.96505	2.9076	454.97	0.71907	85.912	0.098913	0.0029882	128.82	0.0077627	390.63	424.35	1.7941	0.93775	2.4197	206.49	12.917	15.589	0.024306
281.81	4.3540	870.92	0.0011482	217.09	222.09	1.0761	0.96530	2.9130	454.08	0.72301	85.760	0.098803	0.0029728	129.22	0.0077390	390.56	424.26	1.7935	0.93856	2.4280	206.42	12.903	15.602	0.024360
281.90	4.3640	870.26	0.0011491	217.32	222.33	1.0769	0.96555	2.9185	453.19	0.72698	85.608	0.098692	0.0029575	129.61	0.0077154	390.50	424.17	1.7929	0.93937	2.4364	206.35	12.888	15.615	0.024414
281.99	4.3740	869.60	0.0011500	217.55	222.58	1.0778	0.96581	2.9240	452.30	0.73097	85.456	0.098582	0.0029422	130.01	0.0076919	390.43	424.08	1.7923	0.94019	2.4448	206.29	12.874	15.628	0.024468
282.08	4.3840	868.94	0.0011508	217.78	222.83	1.0786	0.96607	2.9295	451.40	0.73499	85.304	0.098471	0.0029269	130.41	0.0076684	390.37	423.99	1.7917	0.94101	2.4533	206.22	12.859	15.641	0.024523
282.17	4.3941	868.28	0.0011517	218.01	223.08	1.0794	0.96633	2.9351	450.51	0.73903	85.153	0.098361	0.0029116	130.81	0.0076449	390.30	423.89	1.7911	0.94183	2.4619	206.15	12.845	15.654	0.024578
282.26	4.4042	867.61	0.0011526	218.25	223.32	1.0803	0.96658	2.9407	449.61	0.74309	85.001	0.098250	0.0028963	131.21	0.0076216	390.24	423.80	1.7905	0.94265	2.4705	206.08	12.830	15.668	0.024634
282.36	4.4143	866.94	0.0011535	218.48	223.57	1.0811	0.96684	2.9464	448.72	0.74718	84.849	0.098139	0.0028811	131.61	0.0075982	390.17	423.71	1.7899	0.94348	2.4792	206.01	12.816	15.681	0.024690
282.45	4.4244	866.28	0.0011544	218.71	223.82	1.0820	0.96710	2.9522	447.82	0.75129	84.698	0.098029	0.0028658	132.01	0.0075749	390.10	423.62	1.7893	0.94430	2.4880	205.94	12.801	15.694	0.024746
282.54	4.4345	865.61	0.0011553	218.95	224.07	1.0828	0.96737	2.9579	446.93	0.75543	84.546	0.097918	0.0028506	132.42	0.0075517	390.03	423.52	1.7887	0.94514	2.4969	205.87	12.786	15.708	0.024803
282.63	4.4446	864.94	0.0011562	219.18	224.32	1.0836	0.96763	2.9638	446.03	0.75960	84.395	0.097807	0.0028354	132.83	0.0075285	389.97	423.43	1.7881	0.94597	2.5059	205.80	12.772	15.721	0.024859
282.72	4.4548	864.26	0.0011571	219.41	224.57	1.0845	0.96789	2.9697	445.13	0.76379	84.243	0.097697	0.0028202	133.24	0.0075054	389.90	423.33	1.7875	0.94681	2.5149	205.73	12.757	15.735	0.024917
282.82	4.4650	863.59	0.0011580	219.65	224.82	1.0853	0.96816	2.9756	444.24	0.76800	84.092	0.097586	0.0028050	133.65	0.0074823	389.83	423.24	1.7869	0.94765	2.5240	205.66	12.742	15.749	0.024974
282.91	4.4752	862.91	0.0011589	219.88	225.07	1.0862	0.96842	2.9816	443.34	0.77225	83.940	0.097475	0.0027899	134.06	0.0074593	389.76	423.14	1.7863	0.94850	2.5332	205.59	12.728	15.762	0.025032
283.00	4.4854	862.23	0.0011598	220.12	225.32	1.0870	0.96869	2.9876	442.44	0.77651	83.789	0.097365	0.0027748	134.47	0.0074363	389.69	423.04	1.7857	0.94934	2.5424	205.52	12.713	15.776	0.025091
283.09	4.4956	861.55	0.0011607	220.35	225.57	1.0879	0.96896	2.9937	441.54	0.78081	83.637	0.097254	0.0027596	134.89	0.0074134	389.62	422.95	1.7851	0.95019	2.5518	205.45	12.698	15.790	0.025149
283.18	4.5059	860.87	0.0011616	220.59	225.82	1.0887	0.96923	2.9998	440.64	0.78513	83.486	0.097143	0.0027445	135.31	0.0073905	389.55	422.85	1.7845	0.95105	2.5612	205.38	12.683	15.804	0.025209
283.28	4.5162	860.19	0.0011625	220.82	226.07	1.0895	0.96950	3.0060	439.74	0.78948	83.335	0.097033	0.0027294	135.73	0.0073677	389.48	422.75	1.7838	0.95190	2.5707	205.31	12.669	15.818	0.025268
283.37	4.5265	859.51	0.0011635	221.06	226.32	1.0904	0.96977	3.0123	438.84	0.79386	83.183	0.096922	0.0027144	136.15	0.0073450	389.40	422.65	1.7832	0.95276	2.5803	205.24	12.654	15.831	0.025328
283.46	4.5368	858.82	0.0011644	221.29	226.58	1.0912	0.97004	3.0186	437.94	0.79826	83.032	0.096811	0.0026993	136.57	0.0073222	389.33	422.55	1.7826	0.95363	2.5900	205.17	12.639	15.846	0.025388
283.55	4.5471	858.13	0.0011653	221.53	226.83	1.0921	0.97031	3.0249	437.04	0.80269	82.881	0.096700	0.0026843	136.99	0.0072996	389.26	422.45	1.7820	0.95450	2.5998	205.10	12.624	15.860	0.025449
283.64	4.5574	857.44	0.0011663	221.77	227.08	1.0929	0.97059	3.0314	436.14	0.80715	82.729	0.096590	0.0026693	137.42	0.0072769	389.19	422.35	1.7814	0.95537	2.6097	205.02	12.609	15.874	0.025510
283.73	4.5678	856.75	0.0011672	222.00	227.34	1.0938	0.97086	3.0378	435.24	0.81164	82.578	0.096479	0.0026543	137.85	0.0072544	389.11	422.25	1.7808	0.95624	2.6196	204.95	12.595	15.888	0.025572
283.83	4.5782	856.06	0.0011681	222.24	227.59	1.0946	0.97114	3.0444	434.34	0.81616	82.427	0.096368	0.0026393	138.28	0.0072318	389.04	422.15	1.7801	0.95712	2.6297	204.88	12.580	15.902	0.025634
283.92	4.5886	855.36	0.0011691	222.48	227.84	1.0955	0.97141	3.0509	433.43	0.82070	82.275	0.096257	0.0026243	138.71	0.0072094	388.97	422.05	1.7795	0.95800	2.6398	204.81	12.565	15.917	0.025696
284.01	4.5990	854.67	0.0011700	222.72	228.10	1.0963	0.97169	3.0576	432.53	0.82528	82.124	0.096146	0.0026094	139.14	0.0071869	388.89	421.94	1.7789	0.95888	2.6501	204.73	12.550	15.931	0.025759
284.10	4.6094	853.97	0.0011710	222.95	228.35	1.0972	0.97197	3.0643	431.62	0.82988	81.973	0.096035	0.0025944	139.58	0.0071645	388.82	421.84	1.7783	0.95977	2.6604	204.66	12.535	15.946	0.025822
284.19	4.6198	853.27	0.0011720	223.19	228.61	1.0981	0.97225	3.0711	430.72	0.83451	81.822	0.095925	0.0025795	140.01	0.0071422	388.74	421.74	1.7776	0.96066	2.6708	204.59	12.520	15.960	0.025886
284.29	4.6303	852.57	0.0011729	223.43	228.86	1.0989	0.97254	3.0779	429.81	0.83918	81.670	0.095814	0.0025646	140.45	0.0071199	388.66	421.63	1.7770	0.96155	2.6814	204.52	12.505	15.975	0.025950
284.38	4.6408	851.86	0.0011739	223.67	229.12	1.0998	0.97282	3.0848	428.91	0.84387	81.519	0.095703	0.0025497	140.89	0.0070977	388.59	421.53	1.7764	0.96245	2.6920	204.44	12.490	15.989	0.026014
284.47	4.6513	851.16	0.0011749	223.91	229.38	1.1006	0.97311	3.0918	428.00	0.84860	81.368	0.095592	0.0025349	141.33	0.0070755	388.51	421.42	1.7757	0.96335	2.7027	204.37	12.475	16.004	0.026079
284.56	4.6618	850.45	0.0011758	224.15	229.63	1.1015	0.97339	3.0988	427.10	0.85335	81.217	0.095481	0.0025200	141.78	0.0070533	388.43	421.31	1.7751	0.96426	2.7136	204.29	12.460	16.019	0.026145
284.65	4.6723	849.74	0.0011768	224.39	229.89	1.1023	0.97368	3.1059	426.19	0.85814	81.065	0.095370	0.0025052	142.22	0.0070312	388.35	421.21	1.7745	0.96517	2.7245	204.22	12.445	16.034	0.026210
284.74	4.6829	849.03	0.0011778	224.63	230.15	1.1032	0.97397	3.1131	425.28	0.86296	80.914	0.095259	0.0024904	142.67	0.0070092	388.28	421.10	1.7738	0.96608	2.7356	204.14	12.429	16.049	0.026277
284.84	4.6935	848.32	0.0011788	224.87	230.40	1.1041	0.97426	3.1203	424.37	0.86781	80.763	0.095148	0.0024756	143.12	0.0069872	388.20	420.99	1.7732	0.96700	2.7467	204.07	12.414	16.064	0.026344
284.93	4.7041	847.60	0.0011798	225.11	230.66	1.1049	0.97455	3.1276	423.46	0.87269	80.612	0.095038	0.0024608	143.57	0.0069652	388.12	420.88	1.7725	0.96792	2.7580	204.00	12.399	16.079	0.026411
285.02	4.7147	846.89	0.0011808	225.35	230.92	1.1058	0.97484	3.1349	422.55	0.87760	80.460	0.094927	0.0024461	144.02	0.0069433	388.04	420.77	1.7719	0.96884	2.7693	203.92	12.384	16.094	0.026479
285.11	4.7253	846.17	0.0011818	225.60	231.18	1.1067	0.97514	3.1424	421.64	0.88255	80.309	0.094816	0.0024313	144.48	0.0069214	387.96	420.66	1.7712	0.96977	2.7808	203.84	12.369	16.109	0.026547
285.20	4.7360	845.45	0.0011828	225.84	231.44	1.1075	0.97543	3.1499	420.73	0.88753	80.158	0.094705	0.0024166	144.94	0.0068996	387.88	420.55	1.7706	0.97070	2.7924	203.77	12.353	16.125	0.026615
285.30	4.7466	844.72	0.0011838	226.08	231.70	1.1084	0.97573	3.1575	419.82	0.89255	80.006	0.094594	0.0024019	145.40	0.0068778	387.79	420.44	1.7700	0.97164	2.8041	203.69	12.338	16.140	0.026685
285.39	4.7573	844.00	0.0011848	226.32	231.96	1.1093	0.97603	3.1651	418.90	0.89759	79.855	0.094483	0.0023872	145.86	0.0068560	387.71	420.33	1.7693	0.97258	2.8160	203.62	12.323	16.156	0.026754
285.48	4.7680	843.27	0.0011859	226.57	232.22	1.1101	0.97633	3.1728	417.99	0.90268	79.704	0.094372	0.0023726	146.32	0.0068343	387.63	420.22	1.7687	0.97352	2.8279	203.54	12.307	16.171	0.026824
285.57	4.7787	842.54	0.0011869	226.81	232.48	1.1110	0.97663	3.1807	417.08	0.90779	79.552	0.094261	0.0023579	146.78	0.0068127	387.55	420.10	1.7680	0.97447	2.8400	203.46	12.292	16.187	0.026895
285.66	4.7895	841.81	0.0011879	227.05	232.74	1.1119	0.97694	3.1885	416.16	0.91294	79.401	0.094150	0.0023433	147.25	0.0067911	387.46	419.99	1.7673	0.97542	2.8522	203.39	12.277	16.202	0.026966
285.76	4.8002	841.08	0.0011889	227.30	233.00	1.1127	0.97724	3.1965	415.25	0.91813	79.249	0.094039	0.0023287	147.72	0.0067695	387.38	419.87	1.7667	0.97638	2.8645	203.31	12.261	16.218	0.027038
285.85	4.8110	840.35	0.0011900	227.54	233.27	1.1136	0.97755	3.2045	414.33	0.92335	79.098	0.093928	0.0023141	148.19	0.0067480	387.29	419.76	1.7660	0.97734	2.8770	203.23	12.246	16.234	0.027110
285.94	4.8218	839.61	0.0011910	227.79	233.53	1.1145	0.97786	3.2127	413.42	0.92861	78.947	0.093817	0.0022995	148.67	0.0067265	387.21	419.64	1.7654	0.97831	2.8895	203.15	12.230	16.250	0.027183
286.03	4.8326	838.87	0.0011921	228.03	233.79	1.1154	0.97817	3.2209	412.50	0.93390	78.795	0.093707	0.0022850	149.14	0.0067051	387.12	419.53	1.7647	0.97928	2.9023	203.08	12.215	16.266	0.027256
286.12	4.8434	838.13	0.0011931	228.28	234.06	1.1162	0.97848	3.2292	411.58	0.93923	78.644	0.093596	0.0022704	149.62	0.0066837	387.04	419.41	1.7640	0.98025	2.9151	203.00	12.199	16.282	0.027330
286.21	4.8543	837.39	0.0011942	228.52	234.32	1.1171	0.97879	3.2375	410.66	0.94460	78.492	0.093485	0.0022559	150.10	0.0066623	386.95	419.29	1.7634	0.98123	2.9281	202.92	12.184	16.298	0.027405
286.31	4.8651	836.64	0.0011953	228.77	234.58	1.1180	0.97911	3.2460	409.74	0.95001	78.340	0.093374	0.0022414	150.58	0.0066410	386.86	419.17	1.7627	0.98221	2.9412	202.84	12.168	16.314	0.027480
286.40	4.8760	835.89	0.0011963	229.02	234.85	1.1189	0.97943	3.2545	408.82	0.95545	78.189	0.093263	0.0022269	151.06	0.0066197	386.78	419.05	1.7620	0.98320	2.9544	202.76	12.152	16.331	0.027555
286.49	4.8869	835.15	0.0011974	229.26	235.11	1.1197	0.97975	3.2632	407.90	0.96093	78.037	0.093152	0.0022125	151.55	0.0065985	386.69	418.93	1.7614	0.98419	2.9678	202.68	12.137	16.347	0.027631
286.58	4.8978	834.39	0.0011985	229.51	235.38	1.1206	0.98007	3.2719	406.98	0.96645	77.885	0.093041	0.0021980	152.04	0.0065773	386.60	418.81	1.7607	0.98518	2.9814	202.60	12.121	16.364	0.027708
286.67	4.9088	833.64	0.0011996	229.76	235.65	1.1215	0.98039	3.2807	406.05	0.97201	77.734	0.092930	0.0021836	152.53	0.0065561	386.51	418.69	1.7600	0.98619	2.9950	202.52	12.105	16.380	0.027785
286.77	4.9197	832.88	0.0012006	230.01	235.91	1.1224	0.98071	3.2896	405.13	0.97760	77.582	0.092819	0.0021692	153.02	0.0065350	386.42	418.57	1.7593	0.98719	3.0089	202.44	12.089	16.397	0.027863
286.86	4.9307	832.13	0.0012017	230.25	236.18	1.1233	0.98104	3.2986	404.21	0.98324	77.430	0.092709	0.0021548	153.52	0.0065140	386.33	418.45	1.7587	0.98820	3.0229	202.36	12.074	16.414	0.027942
286.95	4.9417	831.36	0.0012028	230.50	236.45	1.1242	0.98137	3.3077	403.28	0.98892	77.278	0.092598	0.0021405	154.01	0.0064929	386.24	418.32	1.7580	0.98922	3.0370	202.28	12.058	16.431	0.028021
287.04	4.9527	830.60	0.0012039	230.75	236.72	1.1251	0.98170	3.3169	402.35	0.99464	77.126	0.092487	0.0021261	154.51	0.0064719	386.14	418.20	1.7573	0.99023	3.0513	202.20	12.042	16.448	0.028100
287.13	4.9638	829.84	0.0012051	231.00	236.98	1.1259	0.98203	3.3262	401.43	1.0004	76.974	0.092376	0.0021118	155.02	0.0064510	386.05	418.07	1.7566	0.99126	3.0657	202.12	12.026	16.465	0.028181
287.23	4.9748	829.07	0.0012062	231.25	237.25	1.1268	0.98237	3.3355	400.50	1.0062	76.822	0.092265	0.0020975	155.52	0.0064301	385.96	417.95	1.7559	0.99229	3.0804	202.04	12.010	16.482	0.028262
287.32	4.9859	828.30	0.0012073	231.50	237.52	1.1277	0.98271	3.3450	399.57	1.0120	76.670	0.092154	0.0020832	156.03	0.0064092	385.86	417.82	1.7552	0.99332	3.0951	201.96	11.994	16.499	0.028343
287.41	4.9970	827.53	0.0012084	231.75	237.79	1.1286	0.98305	3.3546	398.64	1.0179	76.518	0.092044	0.0020689	156.53	0.0063883	385.77	417.69	1.7546	0.99436	3.1101	201.88	11.978	16.516	0.028425
287.50	5.0081	826.75	0.0012096	232.01	238.06	1.1295	0.98339	3.3643	397.71	1.0239	76.366	0.091933	0.0020547	157.05	0.0063675	385.67	417.56	1.7539	0.99541	3.1252	201.80	11.962	16.534	0.028508
287.59	5.0192	825.97	0.0012107	232.26	238.33	1.1304	0.98373	3.3741	396.78	1.0298	76.213	0.091822	0.0020405	157.56	0.0063468	385.58	417.44	1.7532	0.99646	3.1405	201.71	11.946	16.551	0.028592
287.68	5.0304	825.19	0.0012118	232.51	238.61	1.1313	0.98408	3.3840	395.84	1.0358	76.061	0.091711	0.0020263	158.08	0.0063261	385.48	417.31	1.7525	0.99751	3.1559	201.63	11.930	16.569	0.028676
287.78	5.0415	824.41	0.0012130	232.76	238.88	1.1322	0.98443	3.3941	394.91	1.0419	75.908	0.091601	0.0020121	158.59	0.0063054	385.39	417.17	1.7518	0.99857	3.1716	201.55	11.913	16.587	0.028761
287.87	5.0527	823.63	0.0012141	233.02	239.15	1.1331	0.98478	3.4042	393.98	1.0480	75.756	0.091490	0.0019979	159.12	0.0062847	385.29	417.04	1.7511	0.99964	3.1874	201.46	11.897	16.604	0.028846
287.96	5.0639	822.84	0.0012153	233.27	239.42	1.1340	0.98513	3.4144	393.04	1.0542	75.603	0.091379	0.0019838	159.64	0.0062641	385.19	416.91	1.7504	1.0007	3.2034	201.38	11.881	16.622	0.028933
288.05	5.0752	822.05	0.0012165	233.52	239.70	1.1349	0.98549	3.4248	392.10	1.0604	75.451	0.091269	0.0019696	160.17	0.0062435	385.09	416.78	1.7497	1.0018	3.2196	201.30	11.865	16.640	0.029020
288.14	5.0864	821.26	0.0012176	233.78	239.97	1.1358	0.98584	3.4353	391.17	1.0666	75.298	0.091158	0.0019555	160.69	0.0062230	384.99	416.64	1.7490	1.0029	3.2360	201.21	11.848	16.658	0.029107
288.24	5.0977	820.46	0.0012188	234.03	240.25	1.1367	0.98621	3.4459	390.23	1.0729	75.145	0.091048	0.0019415	161.23	0.0062025	384.89	416.51	1.7482	1.0040	3.2526	201.13	11.832	16.677	0.029196
288.33	5.1089	819.67	0.0012200	234.29	240.52	1.1376	0.98657	3.4566	389.29	1.0792	74.992	0.090937	0.0019274	161.76	0.0061820	384.79	416.37	1.7475	1.0050	3.2693	201.04	11.816	16.695	0.029285
288.42	5.1202	818.87	0.0012212	234.54	240.80	1.1385	0.98694	3.4674	388.34	1.0856	74.839	0.090827	0.0019134	162.30	0.0061616	384.69	416.24	1.7468	1.0061	3.2863	200.96	11.799	16.713	0.029375
288.51	5.1316	818.06	0.0012224	234.80	241.07	1.1394	0.98731	3.4784	387.40	1.0921	74.686	0.090716	0.0018993	162.84	0.0061412	384.59	416.10	1.7461	1.0072	3.3035	200.87	11.783	16.732	0.029465
288.60	5.1429	817.26	0.0012236	235.06	241.35	1.1404	0.98768	3.4895	386.46	1.0985	74.533	0.090606	0.0018853	163.38	0.0061208	384.48	415.96	1.7454	1.0084	3.3209	200.79	11.766	16.750	0.029557
288.70	5.1543	816.45	0.0012248	235.31	241.63	1.1413	0.98805	3.5007	385.51	1.1051	74.380	0.090496	0.0018714	163.92	0.0061005	384.38	415.82	1.7447	1.0095	3.3385	200.70	11.749	16.769	0.029649
288.79	5.1656	815.64	0.0012260	235.57	241.90	1.1422	0.98843	3.5121	384.57	1.1117	74.226	0.090385	0.0018574	164.47	0.0060802	384.28	415.68	1.7439	1.0106	3.3563	200.62	11.733	16.788	0.029742
288.88	5.1770	814.83	0.0012273	235.83	242.18	1.1431	0.98881	3.5236	383.62	1.1183	74.073	0.090275	0.0018435	165.02	0.0060599	384.17	415.54	1.7432	1.0117	3.3744	200.53	11.716	16.807	0.029836
288.97	5.1885	814.01	0.0012285	236.09	242.46	1.1440	0.98920	3.5352	382.67	1.1250	73.919	0.090165	0.0018295	165.57	0.0060397	384.07	415.40	1.7425	1.0129	3.3927	200.44	11.699	16.826	0.029930
289.06	5.1999	813.19	0.0012297	236.35	242.74	1.1449	0.98958	3.5470	381.72	1.1317	73.766	0.090055	0.0018156	166.13	0.0060195	383.96	415.26	1.7418	1.0140	3.4112	200.36	11.683	16.845	0.030026
289.15	5.2114	812.37	0.0012310	236.61	243.02	1.1459	0.98997	3.5589	380.77	1.1385	73.612	0.089944	0.0018018	166.69	0.0059993	383.85	415.12	1.7410	1.0151	3.4299	200.27	11.666	16.865	0.030122
289.25	5.2228	811.55	0.0012322	236.87	243.30	1.1468	0.99037	3.5709	379.82	1.1454	73.458	0.089834	0.0017879	167.25	0.0059792	383.74	414.97	1.7403	1.0163	3.4489	200.18	11.649	16.884	0.030219
289.34	5.2343	810.72	0.0012335	237.13	243.58	1.1477	0.99076	3.5831	378.86	1.1523	73.304	0.089724	0.0017741	167.81	0.0059591	383.64	414.83	1.7395	1.0175	3.4681	200.09	11.632	16.904	0.030317
289.43	5.2458	809.89	0.0012347	237.39	243.87	1.1486	0.99116	3.5955	377.91	1.1592	73.150	0.089614	0.0017603	168.38	0.0059390	383.53	414.68	1.7388	1.0186	3.4875	200.00	11.615	16.923	0.030416
289.52	5.2574	809.05	0.0012360	237.65	244.15	1.1496	0.99157	3.6080	376.95	1.1662	72.996	0.089505	0.0017465	168.95	0.0059190	383.42	414.53	1.7381	1.0198	3.5073	199.91	11.598	16.943	0.030515
289.61	5.2689	808.22	0.0012373	237.91	244.43	1.1505	0.99198	3.6206	375.99	1.1733	72.841	0.089395	0.0017327	169.52	0.0058990	383.31	414.39	1.7373	1.0210	3.5272	199.83	11.581	16.963	0.030616
289.71	5.2805	807.38	0.0012386	238.18	244.72	1.1514	0.99239	3.6334	375.03	1.1804	72.687	0.089285	0.0017190	170.10	0.0058790	383.19	414.24	1.7366	1.0222	3.5475	199.74	11.564	16.983	0.030717
289.80	5.2921	806.53	0.0012399	238.44	245.00	1.1523	0.99280	3.6464	374.07	1.1876	72.532	0.089175	0.0017053	170.68	0.0058591	383.08	414.09	1.7358	1.0234	3.5680	199.65	11.547	17.003	0.030820
289.89	5.3037	805.69	0.0012412	238.70	245.28	1.1533	0.99322	3.6595	373.11	1.1949	72.378	0.089066	0.0016916	171.26	0.0058392	382.97	413.94	1.7351	1.0246	3.5888	199.56	11.529	17.023	0.030923
289.98	5.3153	804.84	0.0012425	238.97	245.57	1.1542	0.99364	3.6728	372.14	1.2022	72.223	0.088956	0.0016779	171.84	0.0058193	382.85	413.79	1.7343	1.0258	3.6098	199.47	11.512	17.044	0.031027
290.07	5.3270	803.99	0.0012438	239.23	245.86	1.1551	0.99407	3.6863	371.18	1.2095	72.068	0.088847	0.0016643	172.43	0.0057994	382.74	413.63	1.7335	1.0270	3.6311	199.37	11.495	17.064	0.031133
290.16	5.3387	803.13	0.0012451	239.50	246.14	1.1561	0.99450	3.7000	370.21	1.2170	71.913	0.088738	0.0016506	173.02	0.0057796	382.62	413.48	1.7328	1.0282	3.6528	199.28	11.477	17.085	0.031239
290.26	5.3504	802.28	0.0012465	239.76	246.43	1.1570	0.99493	3.7138	369.24	1.2244	71.757	0.088628	0.0016370	173.62	0.0057598	382.51	413.32	1.7320	1.0294	3.6747	199.19	11.460	17.106	0.031346
290.35	5.3621	801.41	0.0012478	240.03	246.72	1.1580	0.99537	3.7278	368.27	1.2320	71.602	0.088519	0.0016234	174.21	0.0057400	382.39	413.17	1.7312	1.0307	3.6969	199.10	11.442	17.127	0.031454
290.44	5.3738	800.55	0.0012491	240.30	247.01	1.1589	0.99582	3.7420	367.30	1.2396	71.447	0.088410	0.0016099	174.82	0.0057203	382.27	413.01	1.7305	1.0319	3.7194	199.01	11.425	17.148	0.031563
290.53	5.3856	799.68	0.0012505	240.56	247.30	1.1599	0.99626	3.7563	366.32	1.2473	71.291	0.088301	0.0015963	175.42	0.0057006	382.15	412.85	1.7297	1.0332	3.7423	198.91	11.407	17.169	0.031674
290.62	5.3973	798.81	0.0012519	240.83	247.59	1.1608	0.99671	3.7709	365.35	1.2550	71.135	0.088192	0.0015828	176.03	0.0056809	382.03	412.70	1.7289	1.0344	3.7655	198.82	11.390	17.190	0.031785
290.72	5.4091	797.94	0.0012532	241.10	247.88	1.1618	0.99717	3.7856	364.37	1.2628	70.979	0.088084	0.0015693	176.64	0.0056613	381.91	412.54	1.7281	1.0357	3.7890	198.73	11.372	17.212	0.031897
290.81	5.4209	797.06	0.0012546	241.37	248.17	1.1627	0.99763	3.8006	363.39	1.2707	70.823	0.087975	0.0015559	177.25	0.0056416	381.79	412.37	1.7274	1.0370	3.8128	198.63	11.354	17.234	0.032011
290.90	5.4328	796.18	0.0012560	241.64	248.46	1.1637	0.99810	3.8157	362.41	1.2786	70.666	0.087866	0.0015424	177.87	0.0056220	381.67	412.21	1.7266	1.0382	3.8370	198.54	11.336	17.255	0.032125
290.99	5.4446	795.29	0.0012574	241.91	248.76	1.1646	0.99857	3.8311	361.42	1.2866	70.510	0.087758	0.0015290	178.49	0.0056025	381.55	412.05	1.7258	1.0395	3.8615	198.44	11.318	17.277	0.032241
291.08	5.4565	794.40	0.0012588	242.18	249.05	1.1656	0.99905	3.8467	360.44	1.2947	70.353	0.087650	0.0015156	179.12	0.0055829	381.42	411.88	1.7250	1.0408	3.8863	198.35	11.300	17.300	0.032357
291.18	5.4684	793.51	0.0012602	242.45	249.35	1.1665	0.99953	3.8624	359.45	1.3029	70.196	0.087542	0.0015022	179.75	0.0055634	381.30	411.72	1.7242	1.0421	3.9116	198.25	11.282	17.322	0.032475
291.27	5.4803	792.61	0.0012616	242.73	249.64	1.1675	1.0000	3.8784	358.46	1.3111	70.039	0.087434	0.0014889	180.38	0.0055439	381.17	411.55	1.7234	1.0435	3.9372	198.16	11.264	17.344	0.032594
291.36	5.4922	791.71	0.0012631	243.00	249.94	1.1685	1.0005	3.8947	357.47	1.3194	69.882	0.087326	0.0014756	181.01	0.0055244	381.04	411.38	1.7226	1.0448	3.9632	198.06	11.246	17.367	0.032715
291.45	5.5042	790.81	0.0012645	243.27	250.23	1.1694	1.0010	3.9111	356.48	1.3278	69.724	0.087218	0.0014623	181.65	0.0055050	380.92	411.22	1.7218	1.0461	3.9896	197.97	11.228	17.390	0.032836
291.54	5.5162	789.90	0.0012660	243.55	250.53	1.1704	1.0015	3.9278	355.48	1.3362	69.567	0.087111	0.0014490	182.30	0.0054856	380.79	411.05	1.7210	1.0475	4.0163	197.87	11.209	17.412	0.032959
291.63	5.5282	788.99	0.0012674	243.82	250.83	1.1714	1.0020	3.9447	354.48	1.3447	69.409	0.087004	0.0014357	182.94	0.0054662	380.66	410.87	1.7202	1.0488	4.0435	197.77	11.191	17.435	0.033083
291.73	5.5402	788.08	0.0012689	244.10	251.13	1.1723	1.0025	3.9619	353.48	1.3533	69.251	0.086896	0.0014225	183.59	0.0054468	380.53	410.70	1.7193	1.0502	4.0711	197.67	11.172	17.459	0.033208
291.82	5.5522	787.16	0.0012704	244.37	251.43	1.1733	1.0031	3.9793	352.48	1.3620	69.093	0.086789	0.0014093	184.25	0.0054274	380.39	410.53	1.7185	1.0515	4.0992	197.57	11.154	17.482	0.033334
291.91	5.5643	786.24	0.0012719	244.65	251.73	1.1743	1.0036	3.9970	351.47	1.3708	68.934	0.086683	0.0013961	184.91	0.0054081	380.26	410.35	1.7177	1.0529	4.1276	197.48	11.135	17.506	0.033462
292.00	5.5764	785.31	0.0012734	244.93	252.03	1.1753	1.0041	4.0149	350.46	1.3796	68.776	0.086576	0.0013830	185.57	0.0053888	380.13	410.18	1.7169	1.0543	4.1565	197.38	11.117	17.529	0.033591
292.09	5.5885	784.38	0.0012749	245.21	252.33	1.1763	1.0047	4.0331	349.45	1.3885	68.617	0.086470	0.0013699	186.24	0.0053695	379.99	410.00	1.7160	1.0557	4.1859	197.28	11.098	17.553	0.033722
292.19	5.6006	783.45	0.0012764	245.49	252.64	1.1772	1.0052	4.0516	348.44	1.3975	68.458	0.086364	0.0013568	186.91	0.0053503	379.86	409.82	1.7152	1.0571	4.2157	197.18	11.079	17.577	0.033854
292.28	5.6127	782.51	0.0012779	245.77	252.94	1.1782	1.0058	4.0704	347.43	1.4066	68.298	0.086258	0.0013437	187.58	0.0053310	379.72	409.64	1.7144	1.0585	4.2460	197.08	11.060	17.602	0.033987
292.37	5.6249	781.57	0.0012795	246.05	253.24	1.1792	1.0063	4.0894	346.41	1.4158	68.139	0.086152	0.0013306	188.26	0.0053118	379.58	409.46	1.7135	1.0600	4.2768	196.97	11.041	17.626	0.034122
292.46	5.6371	780.62	0.0012810	246.33	253.55	1.1802	1.0069	4.1087	345.39	1.4250	67.979	0.086046	0.0013176	188.94	0.0052926	379.44	409.28	1.7127	1.0614	4.3081	196.87	11.022	17.651	0.034258
292.55	5.6493	779.67	0.0012826	246.61	253.86	1.1812	1.0075	4.1284	344.36	1.4344	67.819	0.085941	0.0013046	189.63	0.0052734	379.30	409.09	1.7118	1.0628	4.3399	196.77	11.003	17.676	0.034395
292.65	5.6615	778.71	0.0012842	246.89	254.16	1.1822	1.0081	4.1483	343.34	1.4438	67.658	0.085836	0.0012916	190.32	0.0052542	379.16	408.91	1.7110	1.0643	4.3722	196.67	10.984	17.701	0.034535
292.74	5.6738	777.75	0.0012858	247.18	254.47	1.1832	1.0086	4.1685	342.31	1.4533	67.498	0.085732	0.0012787	191.02	0.0052351	379.02	408.72	1.7101	1.0658	4.4051	196.56	10.964	17.726	0.034675
292.83	5.6860	776.79	0.0012873	247.46	254.78	1.1842	1.0092	4.1891	341.28	1.4630	67.337	0.085627	0.0012658	191.72	0.0052160	378.88	408.53	1.7093	1.0673	4.4385	196.46	10.945	17.751	0.034817
292.92	5.6983	775.82	0.0012890	247.75	255.09	1.1852	1.0099	4.2100	340.24	1.4727	67.176	0.085523	0.0012529	192.42	0.0051969	378.73	408.34	1.7084	1.0688	4.4725	196.36	10.926	17.777	0.034961
293.01	5.7106	774.85	0.0012906	248.03	255.40	1.1862	1.0105	4.2313	339.21	1.4825	67.015	0.085419	0.0012400	193.13	0.0051778	378.58	408.15	1.7075	1.0703	4.5071	196.25	10.906	17.803	0.035107
293.10	5.7229	773.87	0.0012922	248.32	255.71	1.1872	1.0111	4.2528	338.17	1.4924	66.853	0.085316	0.0012272	193.85	0.0051587	378.44	407.96	1.7067	1.0718	4.5423	196.15	10.886	17.829	0.035254
293.20	5.7353	772.89	0.0012938	248.61	256.03	1.1882	1.0117	4.2748	337.12	1.5024	66.691	0.085212	0.0012144	194.57	0.0051397	378.29	407.77	1.7058	1.0733	4.5780	196.04	10.867	17.855	0.035402
293.29	5.7477	771.90	0.0012955	248.89	256.34	1.1893	1.0124	4.2971	336.07	1.5125	66.529	0.085110	0.0012016	195.29	0.0051206	378.14	407.57	1.7049	1.0748	4.6144	195.93	10.847	17.881	0.035553
293.38	5.7601	770.91	0.0012972	249.18	256.66	1.1903	1.0130	4.3198	335.02	1.5227	66.367	0.085007	0.0011888	196.02	0.0051016	377.99	407.38	1.7040	1.0764	4.6515	195.83	10.827	17.908	0.035705
293.47	5.7725	769.91	0.0012988	249.47	256.97	1.1913	1.0137	4.3428	333.97	1.5331	66.204	0.084905	0.0011761	196.75	0.0050826	377.84	407.18	1.7031	1.0780	4.6892	195.72	10.807	17.935	0.035859
293.56	5.7849	768.91	0.0013005	249.76	257.29	1.1923	1.0144	4.3663	332.91	1.5435	66.041	0.084803	0.0011634	197.49	0.0050636	377.69	406.98	1.7022	1.0795	4.7276	195.61	10.787	17.962	0.036015
293.66	5.7974	767.91	0.0013022	250.06	257.61	1.1933	1.0151	4.3902	331.85	1.5540	65.877	0.084702	0.0011507	198.23	0.0050446	377.53	406.78	1.7013	1.0811	4.7666	195.50	10.767	17.989	0.036172
293.75	5.8099	766.89	0.0013040	250.35	257.92	1.1944	1.0158	4.4145	330.79	1.5647	65.714	0.084601	0.0011381	198.98	0.0050257	377.38	406.57	1.7004	1.0827	4.8064	195.39	10.746	18.017	0.036332
293.84	5.8224	765.88	0.0013057	250.64	258.24	1.1954	1.0165	4.4392	329.72	1.5754	65.550	0.084500	0.0011255	199.73	0.0050067	377.22	406.37	1.6995	1.0844	4.8470	195.28	10.726	18.045	0.036493
293.93	5.8349	764.86	0.0013074	250.94	258.56	1.1964	1.0172	4.4643	328.65	1.5863	65.385	0.084400	0.0011129	200.49	0.0049878	377.06	406.16	1.6986	1.0860	4.8882	195.17	10.705	18.073	0.036656
294.02	5.8474	763.83	0.0013092	251.23	258.89	1.1975	1.0179	4.4899	327.58	1.5973	65.221	0.084301	0.0011003	201.25	0.0049688	376.90	405.96	1.6977	1.0876	4.9303	195.06	10.685	18.101	0.036822
294.12	5.8600	762.80	0.0013110	251.53	259.21	1.1985	1.0186	4.5160	326.50	1.6084	65.056	0.084201	0.0010878	202.02	0.0049499	376.74	405.75	1.6968	1.0893	4.9731	194.95	10.664	18.130	0.036989
294.21	5.8726	761.76	0.0013128	251.82	259.53	1.1996	1.0194	4.5425	325.42	1.6196	64.890	0.084103	0.0010753	202.80	0.0049310	376.58	405.53	1.6958	1.0910	5.0168	194.84	10.643	18.158	0.037158
294.30	5.8852	760.71	0.0013146	252.12	259.86	1.2006	1.0202	4.5696	324.33	1.6309	64.724	0.084005	0.0010628	203.58	0.0049121	376.41	405.32	1.6949	1.0926	5.0613	194.72	10.623	18.187	0.037330
294.39	5.8978	759.67	0.0013164	252.42	260.19	1.2017	1.0209	4.5971	323.24	1.6424	64.558	0.083907	0.0010504	204.36	0.0048932	376.25	405.11	1.6940	1.0943	5.1067	194.61	10.601	18.217	0.037504
294.48	5.9105	758.61	0.0013182	252.72	260.51	1.2027	1.0217	4.6252	322.15	1.6540	64.392	0.083810	0.0010380	205.15	0.0048744	376.08	404.89	1.6930	1.0961	5.1530	194.49	10.580	18.246	0.037680
294.57	5.9232	757.55	0.0013200	253.02	260.84	1.2038	1.0225	4.6538	321.05	1.6657	64.225	0.083714	0.0010256	205.95	0.0048555	375.91	404.67	1.6921	1.0978	5.2002	194.38	10.559	18.276	0.037858
294.67	5.9359	756.48	0.0013219	253.32	261.17	1.2049	1.0234	4.6830	319.95	1.6776	64.058	0.083618	0.0010132	206.75	0.0048366	375.74	404.45	1.6911	1.0996	5.2483	194.26	10.538	18.306	0.038038
294.76	5.9486	755.41	0.0013238	253.63	261.50	1.2059	1.0242	4.7127	318.84	1.6896	63.890	0.083522	0.0010009	207.56	0.0048178	375.57	404.23	1.6901	1.1013	5.2974	194.15	10.516	18.337	0.038221
294.85	5.9613	754.33	0.0013257	253.93	261.83	1.2070	1.0250	4.7431	317.73	1.7017	63.722	0.083428	0.00098864	208.38	0.0047990	375.40	404.01	1.6892	1.1031	5.3475	194.03	10.495	18.367	0.038406
294.94	5.9741	753.25	0.0013276	254.24	262.17	1.2081	1.0259	4.7740	316.62	1.7140	63.553	0.083334	0.00097638	209.20	0.0047801	375.23	403.78	1.6882	1.1049	5.3987	193.91	10.473	18.398	0.038594
295.03	5.9869	752.16	0.0013295	254.54	262.50	1.2091	1.0268	4.8056	315.50	1.7264	63.385	0.083241	0.00096415	210.03	0.0047613	375.05	403.56	1.6872	1.1067	5.4509	193.79	10.451	18.429	0.038784
295.13	5.9997	751.06	0.0013314	254.85	262.84	1.2102	1.0277	4.8378	314.38	1.7389	63.215	0.083148	0.00095195	210.86	0.0047425	374.87	403.33	1.6862	1.1085	5.5042	193.67	10.429	18.461	0.038977
295.22	6.0125	749.96	0.0013334	255.16	263.18	1.2113	1.0286	4.8706	313.25	1.7516	63.045	0.083057	0.00093979	211.70	0.0047236	374.69	403.09	1.6853	1.1104	5.5586	193.55	10.407	18.493	0.039172
295.31	6.0254	748.85	0.0013354	255.47	263.51	1.2124	1.0295	4.9042	312.11	1.7645	62.875	0.082966	0.00092765	212.55	0.0047048	374.51	402.86	1.6843	1.1123	5.6143	193.43	10.385	18.525	0.039370
295.40	6.0382	747.73	0.0013374	255.78	263.85	1.2135	1.0305	4.9385	310.98	1.7775	62.704	0.082876	0.00091555	213.40	0.0046860	374.33	402.63	1.6833	1.1142	5.6711	193.31	10.363	18.558	0.039571
295.49	6.0511	746.61	0.0013394	256.09	264.19	1.2146	1.0314	4.9735	309.83	1.7907	62.533	0.082787	0.00090348	214.26	0.0046672	374.15	402.39	1.6823	1.1161	5.7292	193.18	10.340	18.590	0.039775
295.58	6.0641	745.48	0.0013414	256.40	264.54	1.2157	1.0324	5.0093	308.69	1.8040	62.362	0.082698	0.00089145	215.13	0.0046484	373.96	402.15	1.6812	1.1180	5.7885	193.06	10.318	18.624	0.039981
295.68	6.0770	744.34	0.0013435	256.72	264.88	1.2168	1.0334	5.0459	307.53	1.8175	62.189	0.082611	0.00087944	216.00	0.0046296	373.77	401.91	1.6802	1.1199	5.8492	192.93	10.295	18.657	0.040191
295.77	6.0900	743.20	0.0013455	257.03	265.23	1.2179	1.0345	5.0833	306.38	1.8311	62.017	0.082524	0.00086747	216.88	0.0046107	373.58	401.66	1.6792	1.1219	5.9113	192.81	10.272	18.691	0.040403
295.86	6.1030	742.04	0.0013476	257.35	265.57	1.2190	1.0355	5.1215	305.21	1.8449	61.843	0.082439	0.00085553	217.77	0.0045919	373.39	401.42	1.6782	1.1239	5.9748	192.68	10.249	18.725	0.040619
295.95	6.1160	740.88	0.0013497	257.67	265.92	1.2201	1.0366	5.1606	304.04	1.8589	61.670	0.082355	0.00084363	218.67	0.0045731	373.20	401.17	1.6771	1.1259	6.0398	192.55	10.226	18.760	0.040838
296.04	6.1290	739.72	0.0013519	257.99	266.27	1.2212	1.0377	5.2007	302.87	1.8731	61.495	0.082272	0.00083176	219.57	0.0045543	373.00	400.92	1.6761	1.1279	6.1062	192.42	10.203	18.794	0.041060
296.14	6.1421	738.54	0.0013540	258.31	266.62	1.2224	1.0388	5.2416	301.69	1.8875	61.321	0.082189	0.00081993	220.48	0.0045355	372.81	400.67	1.6750	1.1300	6.1743	192.29	10.179	18.830	0.041285
296.23	6.1551	737.36	0.0013562	258.63	266.98	1.2235	1.0399	5.2836	300.51	1.9020	61.145	0.082109	0.00080812	221.40	0.0045166	372.61	400.41	1.6739	1.1321	6.2440	192.16	10.156	18.865	0.041514
296.32	6.1682	736.17	0.0013584	258.95	267.33	1.2246	1.0411	5.3265	299.31	1.9167	60.969	0.082029	0.00079636	222.33	0.0044978	372.41	400.15	1.6729	1.1342	6.3154	192.03	10.132	18.901	0.041746
296.41	6.1814	734.97	0.0013606	259.28	267.69	1.2258	1.0422	5.3705	298.12	1.9317	60.793	0.081951	0.00078463	223.27	0.0044790	372.21	399.89	1.6718	1.1363	6.3885	191.90	10.108	18.938	0.041982
296.50	6.1945	733.76	0.0013628	259.60	268.05	1.2269	1.0435	5.4156	296.92	1.9468	60.615	0.081873	0.00077293	224.21	0.0044601	372.00	399.63	1.6707	1.1384	6.4635	191.76	10.084	18.975	0.042222
296.60	6.2077	732.55	0.0013651	259.93	268.40	1.2281	1.0447	5.4618	295.71	1.9621	60.437	0.081798	0.00076127	225.16	0.0044413	371.79	399.36	1.6696	1.1406	6.5404	191.63	10.060	19.012	0.042465
296.69	6.2209	731.32	0.0013674	260.26	268.77	1.2292	1.0459	5.5092	294.49	1.9776	60.259	0.081724	0.00074965	226.12	0.0044224	371.58	399.10	1.6685	1.1428	6.6192	191.49	10.035	19.050	0.042712
296.78	6.2341	730.09	0.0013697	260.59	269.13	1.2304	1.0472	5.5578	293.27	1.9934	60.080	0.081651	0.00073806	227.09	0.0044035	371.37	398.82	1.6674	1.1450	6.7000	191.35	10.011	19.088	0.042964
296.87	6.2474	728.85	0.0013720	260.92	269.49	1.2316	1.0485	5.6077	292.05	2.0093	59.900	0.081580	0.00072651	228.07	0.0043846	371.16	398.55	1.6663	1.1473	6.7830	191.21	9.9861	19.127	0.043219
296.96	6.2606	727.60	0.0013744	261.26	269.86	1.2327	1.0499	5.6588	290.81	2.0255	59.719	0.081511	0.00071500	229.06	0.0043657	370.94	398.27	1.6652	1.1495	6.8681	191.07	9.9612	19.166	0.043479
297.05	6.2739	726.34	0.0013768	261.59	270.23	1.2339	1.0513	5.7114	289.57	2.0419	59.538	0.081443	0.00070352	230.05	0.0043468	370.72	398.00	1.6640	1.1519	6.9555	190.93	9.9361	19.205	0.043743
297.15	6.2872	725.07	0.0013792	261.93	270.60	1.2351	1.0527	5.7654	288.33	2.0585	59.356	0.081377	0.00069208	231.06	0.0043279	370.50	397.71	1.6629	1.1542	7.0453	190.79	9.9108	19.245	0.044011
297.24	6.3006	723.79	0.0013816	262.27	270.97	1.2363	1.0541	5.8209	287.08	2.0753	59.173	0.081313	0.00068068	232.07	0.0043090	370.28	397.43	1.6617	1.1566	7.1376	190.64	9.8854	19.285	0.044285
297.33	6.3139	722.50	0.0013841	262.61	271.35	1.2375	1.0556	5.8779	285.82	2.0924	58.990	0.081251	0.00066932	233.10	0.0042900	370.05	397.14	1.6606	1.1590	7.2324	190.49	9.8598	19.326	0.044563
297.42	6.3273	721.20	0.0013866	262.95	271.72	1.2387	1.0571	5.9366	284.55	2.1098	58.805	0.081191	0.00065800	234.14	0.0042710	369.83	396.85	1.6594	1.1614	7.3300	190.35	9.8339	19.368	0.044845
297.51	6.3407	719.89	0.0013891	263.29	272.10	1.2399	1.0586	5.9969	283.28	2.1274	58.620	0.081133	0.00064671	235.18	0.0042520	369.60	396.56	1.6582	1.1638	7.4303	190.20	9.8079	19.410	0.045133
297.61	6.3542	718.57	0.0013917	263.64	272.48	1.2411	1.0602	6.0590	282.00	2.1452	58.434	0.081077	0.00063547	236.24	0.0042330	369.36	396.26	1.6570	1.1663	7.5335	190.05	9.7817	19.452	0.045427
297.70	6.3676	717.23	0.0013942	263.99	272.87	1.2424	1.0618	6.1229	280.71	2.1633	58.247	0.081024	0.00062427	237.31	0.0042139	369.13	395.96	1.6558	1.1689	7.6398	189.89	9.7553	19.496	0.045725
297.79	6.3811	715.89	0.0013969	264.34	273.25	1.2436	1.0635	6.1888	279.42	2.1817	58.059	0.080973	0.00061310	238.39	0.0041949	368.89	395.65	1.6546	1.1714	7.7493	189.74	9.7286	19.539	0.046030
297.88	6.3946	714.53	0.0013995	264.69	273.64	1.2448	1.0652	6.2566	278.11	2.2003	57.871	0.080924	0.00060198	239.48	0.0041758	368.65	395.35	1.6534	1.1740	7.8621	189.58	9.7018	19.583	0.046339
297.97	6.4082	713.17	0.0014022	265.04	274.03	1.2461	1.0669	6.3266	276.80	2.2193	57.681	0.080879	0.00059090	240.58	0.0041566	368.40	395.04	1.6522	1.1767	7.9783	189.43	9.6747	19.628	0.046655
298.07	6.4217	711.79	0.0014049	265.40	274.42	1.2473	1.0687	6.3987	275.49	2.2385	57.491	0.080835	0.00057986	241.69	0.0041375	368.15	394.72	1.6509	1.1793	8.0982	189.27	9.6474	19.674	0.046977
298.16	6.4353	710.39	0.0014077	265.76	274.81	1.2486	1.0705	6.4732	274.16	2.2580	57.299	0.080795	0.00056887	242.82	0.0041183	367.90	394.40	1.6497	1.1821	8.2220	189.10	9.6199	19.720	0.047306
298.25	6.4489	708.99	0.0014105	266.12	275.21	1.2498	1.0724	6.5501	272.83	2.2778	57.106	0.080758	0.00055791	243.96	0.0040991	367.65	394.08	1.6484	1.1848	8.3497	188.94	9.5921	19.767	0.047641
298.34	6.4625	707.57	0.0014133	266.48	275.61	1.2511	1.0743	6.6295	271.49	2.2980	56.913	0.080724	0.00054700	245.11	0.0040798	367.39	393.76	1.6471	1.1876	8.4816	188.78	9.5641	19.814	0.047983
298.43	6.4762	706.14	0.0014161	266.84	276.01	1.2524	1.0763	6.7115	270.14	2.3184	56.718	0.080693	0.00053614	246.27	0.0040605	367.13	393.43	1.6458	1.1905	8.6179	188.61	9.5359	19.862	0.048332
298.52	6.4899	704.70	0.0014190	267.21	276.42	1.2537	1.0783	6.7963	268.78	2.3392	56.522	0.080665	0.00052532	247.45	0.0040412	366.87	393.09	1.6445	1.1934	8.7588	188.44	9.5074	19.911	0.048688
298.62	6.5036	703.24	0.0014220	267.58	276.83	1.2550	1.0804	6.8841	267.41	2.3603	56.325	0.080641	0.00051454	248.64	0.0040218	366.60	392.76	1.6432	1.1963	8.9046	188.27	9.4786	19.960	0.049052
298.71	6.5173	701.76	0.0014250	267.95	277.24	1.2563	1.0826	6.9750	266.04	2.3818	56.127	0.080621	0.00050381	249.85	0.0040024	366.33	392.41	1.6419	1.1993	9.0555	188.09	9.4496	20.010	0.049424
298.80	6.5311	700.28	0.0014280	268.33	277.65	1.2576	1.0848	7.0691	264.65	2.4036	55.928	0.080604	0.00049312	251.07	0.0039829	366.06	392.07	1.6405	1.2023	9.2118	187.91	9.4203	20.062	0.049804
298.89	6.5448	698.77	0.0014311	268.70	278.07	1.2590	1.0870	7.1666	263.26	2.4257	55.727	0.080592	0.00048249	252.31	0.0039634	365.78	391.72	1.6392	1.2054	9.3738	187.73	9.3908	20.113	0.050193
298.98	6.5586	697.25	0.0014342	269.08	278.49	1.2603	1.0893	7.2677	261.86	2.4483	55.525	0.080584	0.00047189	253.56	0.0039439	365.50	391.36	1.6378	1.2086	9.5418	187.55	9.3609	20.166	0.050591
299.08	6.5725	695.72	0.0014374	269.47	278.91	1.2617	1.0917	7.3726	260.45	2.4712	55.322	0.080580	0.00046135	254.83	0.0039242	365.21	391.00	1.6364	1.2117	9.7161	187.37	9.3308	20.219	0.050998
299.17	6.5863	694.17	0.0014406	269.85	279.34	1.2630	1.0941	7.4815	259.03	2.4945	55.117	0.080581	0.00045086	256.11	0.0039046	364.92	390.64	1.6350	1.2150	9.8971	187.18	9.3004	20.274	0.051414
299.26	6.6002	692.60	0.0014438	270.24	279.77	1.2644	1.0967	7.5947	257.60	2.5182	54.911	0.080587	0.00044041	257.41	0.0038848	364.63	390.27	1.6336	1.2183	10.085	186.99	9.2696	20.329	0.051841
299.35	6.6141	691.01	0.0014472	270.63	280.20	1.2658	1.0993	7.7124	256.15	2.5424	54.704	0.080597	0.00043002	258.73	0.0038651	364.33	389.89	1.6322	1.2217	10.281	186.79	9.2385	20.385	0.052278
299.44	6.6281	689.40	0.0014505	271.03	280.64	1.2672	1.1019	7.8349	254.70	2.5669	54.495	0.080614	0.00041967	260.06	0.0038452	364.02	389.51	1.6307	1.2252	10.484	186.60	9.2072	20.442	0.052727
299.54	6.6420	687.78	0.0014540	271.43	281.08	1.2686	1.1047	7.9624	253.24	2.5919	54.284	0.080635	0.00040938	261.42	0.0038253	363.72	389.13	1.6293	1.2287	10.696	186.40	9.1754	20.500	0.053186
299.63	6.6560	686.13	0.0014574	271.83	281.53	1.2700	1.1075	8.0953	251.77	2.6174	54.072	0.080663	0.00039914	262.79	0.0038053	363.41	388.73	1.6278	1.2323	10.918	186.19	9.1434	20.560	0.053659
299.72	6.6700	684.47	0.0014610	272.23	281.98	1.2714	1.1104	8.2339	250.28	2.6433	53.858	0.080697	0.00038895	264.19	0.0037852	363.09	388.34	1.6263	1.2359	11.148	185.99	9.1109	20.620	0.054143
299.81	6.6841	682.78	0.0014646	272.64	282.43	1.2729	1.1134	8.3786	248.79	2.6698	53.643	0.080737	0.00037882	265.60	0.0037651	362.77	387.93	1.6248	1.2397	11.389	185.78	9.0781	20.681	0.054641
299.90	6.6981	681.08	0.0014683	273.05	282.89	1.2743	1.1165	8.5297	247.28	2.6967	53.425	0.080784	0.00036874	267.04	0.0037448	362.44	387.52	1.6232	1.2435	11.641	185.56	9.0449	20.744	0.055153
299.99	6.7122	679.35	0.0014720	273.47	283.35	1.2758	1.1197	8.6879	245.76	2.7241	53.206	0.080838	0.00035871	268.49	0.0037245	362.11	387.11	1.6216	1.2474	11.904	185.34	9.0114	20.807	0.055680
300.09	6.7263	677.59	0.0014758	273.89	283.82	1.2773	1.1230	8.8534	244.23	2.7521	52.985	0.080900	0.00034874	269.97	0.0037041	361.77	386.68	1.6201	1.2514	12.180	185.12	8.9774	20.872	0.056222
300.18	6.7405	675.82	0.0014797	274.31	284.29	1.2788	1.1265	9.0270	242.69	2.7806	52.762	0.080969	0.00033883	271.48	0.0036836	361.42	386.25	1.6185	1.2555	12.470	184.89	8.9430	20.939	0.056781
300.27	6.7546	674.02	0.0014836	274.74	284.76	1.2803	1.1300	9.2091	241.13	2.8097	52.536	0.081047	0.00032898	273.00	0.0036629	361.07	385.82	1.6168	1.2597	12.774	184.66	8.9081	21.006	0.057357
300.36	6.7688	672.19	0.0014877	275.18	285.25	1.2818	1.1337	9.4003	239.55	2.8394	52.309	0.081134	0.00031919	274.56	0.0036422	360.72	385.37	1.6152	1.2640	13.093	184.42	8.8728	21.075	0.057951
300.45	6.7831	670.34	0.0014918	275.61	285.73	1.2834	1.1374	9.6015	237.97	2.8697	52.079	0.081230	0.00030946	276.14	0.0036214	360.36	384.92	1.6135	1.2684	13.429	184.18	8.8370	21.146	0.058565
300.55	6.7973	668.45	0.0014960	276.06	286.22	1.2849	1.1414	9.8134	236.36	2.9007	51.847	0.081336	0.00029979	277.75	0.0036004	359.99	384.46	1.6118	1.2729	13.783	183.93	8.8008	21.218	0.059199
300.64	6.8116	666.54	0.0015003	276.50	286.72	1.2865	1.1454	10.037	234.74	2.9323	51.613	0.081453	0.00029018	279.38	0.0035793	359.61	383.99	1.6101	1.2775	14.157	183.68	8.7640	21.291	0.059855
300.73	6.8259	664.60	0.0015047	276.96	287.23	1.2881	1.1497	10.273	233.11	2.9647	51.376	0.081581	0.00028064	281.05	0.0035581	359.23	383.51	1.6083	1.2823	14.552	183.41	8.7267	21.367	0.060535
300.82	6.8403	662.63	0.0015091	277.41	287.74	1.2898	1.1540	10.523	231.45	2.9977	51.136	0.081721	0.00027116	282.75	0.0035367	358.83	383.03	1.6065	1.2872	14.970	183.15	8.6888	21.444	0.061239
300.91	6.8546	660.62	0.0015137	277.88	288.26	1.2914	1.1586	10.787	229.78	3.0315	50.894	0.081874	0.00026175	284.48	0.0035152	358.43	382.53	1.6047	1.2922	15.414	182.87	8.6504	21.523	0.061970
301.00	6.8690	658.58	0.0015184	278.35	288.78	1.2931	1.1633	11.068	228.09	3.0662	50.648	0.082041	0.00025240	286.24	0.0034935	358.03	382.02	1.6028	1.2974	15.885	182.59	8.6113	21.603	0.062729
301.10	6.8834	656.51	0.0015232	278.83	289.31	1.2948	1.1683	11.367	226.37	3.1016	50.400	0.082222	0.00024313	288.04	0.0034717	357.61	381.51	1.6010	1.3028	16.386	182.30	8.5716	21.686	0.063518
301.19	6.8979	654.39	0.0015281	279.31	289.85	1.2965	1.1734	11.686	224.64	3.1380	50.148	0.082419	0.00023392	289.88	0.0034497	357.18	380.98	1.5990	1.3084	16.920	182.01	8.5312	21.771	0.064341
301.28	6.9124	652.24	0.0015332	279.80	290.40	1.2982	1.1788	12.026	222.88	3.1753	49.893	0.082633	0.00022479	291.76	0.0034274	356.75	380.44	1.5971	1.3141	17.491	181.70	8.4902	21.859	0.065198
301.37	6.9269	650.04	0.0015384	280.30	290.95	1.3000	1.1845	12.390	221.10	3.2135	49.634	0.082866	0.00021574	293.68	0.0034050	356.30	379.89	1.5951	1.3200	18.102	181.38	8.4483	21.949	0.066094
301.46	6.9414	647.80	0.0015437	280.80	291.52	1.3018	1.1904	12.780	219.29	3.2528	49.372	0.083118	0.00020676	295.65	0.0033824	355.84	379.32	1.5931	1.3262	18.758	181.06	8.4057	22.041	0.067031
301.56	6.9560	645.51	0.0015492	281.32	292.09	1.3036	1.1966	13.201	217.45	3.2932	49.106	0.083393	0.00019786	297.66	0.0033595	355.38	378.74	1.5910	1.3326	19.464	180.72	8.3623	22.136	0.068013
301.65	6.9706	643.17	0.0015548	281.84	292.67	1.3055	1.2031	13.655	215.58	3.3347	48.835	0.083691	0.00018904	299.72	0.0033364	354.89	378.15	1.5888	1.3393	20.225	180.37	8.3180	22.234	0.069044
301.74	6.9852	640.78	0.0015606	282.37	293.27	1.3074	1.2099	14.146	213.68	3.3775	48.560	0.084016	0.00018030	301.84	0.0033130	354.40	377.54	1.5867	1.3462	21.050	180.01	8.2728	22.335	0.070129
301.83	6.9999	638.33	0.0015666	282.91	293.88	1.3093	1.2172	14.679	211.74	3.4216	48.280	0.084369	0.00017165	304.01	0.0032894	353.89	376.92	1.5844	1.3534	21.944	179.63	8.2266	22.439	0.071273
301.92	7.0145	635.83	0.0015728	283.46	294.49	1.3113	1.2248	15.261	209.76	3.4670	47.995	0.084754	0.00016308	306.24	0.0032654	353.37	376.28	1.5822	1.3610	22.919	179.24	8.1793	22.547	0.072481
302.02	7.0293	633.25	0.0015791	284.02	295.12	1.3133	1.2329	15.897	207.74	3.5140	47.705	0.085175	0.00015461	308.54	0.0032411	352.84	375.62	1.5798	1.3689	23.984	178.84	8.1309	22.659	0.073761
302.11	7.0440	630.61	0.0015858	284.60	295.77	1.3153	1.2416	16.596	205.68	3.5626	47.408	0.085636	0.00014622	310.90	0.0032164	352.28	374.94	1.5774	1.3773	25.154	178.41	8.0813	22.774	0.075121
302.20	7.0588	627.90	0.0015926	285.19	296.43	1.3174	1.2508	17.368	203.57	3.6128	47.106	0.086141	0.00013794	313.34	0.0031914	351.71	374.24	1.5749	1.3860	26.444	177.96	8.0304	22.894	0.076570
302.29	7.0736	625.10	0.0015997	285.79	297.10	1.3196	1.2606	18.224	201.40	3.6650	46.796	0.086696	0.00012975	315.86	0.0031659	351.12	373.51	1.5724	1.3953	27.872	177.49	7.9782	23.019	0.078118
302.38	7.0884	622.22	0.0016071	286.40	297.80	1.3218	1.2711	19.180	199.17	3.7191	46.479	0.087308	0.00012167	318.47	0.0031400	350.51	372.76	1.5697	1.4051	29.463	177.00	7.9244	23.149	0.079780
302.47	7.1033	619.25	0.0016149	287.04	298.51	1.3241	1.2825	20.253	196.88	3.7754	46.154	0.087987	0.00011369	321.17	0.0031136	349.87	371.99	1.5670	1.4156	31.245	176.48	7.8689	23.285	0.081570
302.57	7.1182	616.17	0.0016229	287.69	299.24	1.3264	1.2948	21.466	194.52	3.8341	45.820	0.088741	0.00010583	323.98	0.0030866	349.21	371.18	1.5642	1.4267	33.253	175.92	7.8117	23.427	0.083506
302.66	7.1332	612.97	0.0016314	288.36	300.00	1.3289	1.3081	22.848	192.08	3.8953	45.477	0.089583	9.8081e-05	326.90	0.0030590	348.52	370.34	1.5613	1.4387	35.534	175.33	7.7526	23.577	0.085611
302.75	7.1481	609.65	0.0016403	289.05	300.78	1.3314	1.3227	24.435	189.55	3.9594	45.122	0.090530	9.0456e-05	329.95	0.0030308	347.80	369.47	1.5582	1.4516	38.145	174.70	7.6913	23.733	0.087913
302.84	7.1631	606.19	0.0016496	289.77	301.59	1.3339	1.3386	26.276	186.92	4.0266	44.756	0.091601	8.2959e-05	333.14	0.0030018	347.05	368.55	1.5551	1.4655	41.162	174.02	7.6277	23.899	0.090446
302.93	7.1782	602.57	0.0016596	290.51	302.43	1.3366	1.3563	28.436	184.18	4.0972	44.376	0.092821	7.5597e-05	336.48	0.0029719	346.26	367.59	1.5518	1.4807	44.683	173.28	7.5615	24.074	0.093254
303.03	7.1933	598.77	0.0016701	291.29	303.30	1.3394	1.3759	31.002	181.32	4.1716	43.981	0.094223	6.8377e-05	340.01	0.0029411	345.43	366.59	1.5483	1.4974	48.843	172.47	7.4923	24.260	0.096391
303.12	7.2084	594.77	0.0016813	292.10	304.22	1.3424	1.3979	34.095	178.32	4.2502	43.569	0.095852	6.1309e-05	343.74	0.0029092	344.55	365.52	1.5446	1.5159	53.827	171.59	7.4199	24.459	0.099932
303.21	7.2235	590.54	0.0016934	292.95	305.18	1.3455	1.4227	37.890	175.17	4.3336	43.137	0.097768	5.4402e-05	347.70	0.0028760	343.61	364.39	1.5407	1.5365	59.899	170.61	7.3438	24.673	0.10397
303.30	7.2387	586.03	0.0017064	293.85	306.20	1.3488	1.4511	42.643	171.83	4.4223	42.682	0.10006	4.7669e-05	351.94	0.0028414	342.61	363.18	1.5366	1.5597	67.442	169.51	7.2635	24.905	0.10865
303.39	7.2539	581.20	0.0017206	294.81	307.29	1.3523	1.4840	48.751	168.28	4.5170	42.200	0.10284	4.1124e-05	356.51	0.0028050	341.53	361.88	1.5322	1.5864	77.043	168.26	7.1782	25.157	0.11415
303.49	7.2692	575.97	0.0017362	295.83	308.45	1.3560	1.5225	56.851	164.48	4.6187	41.684	0.10630	3.4783e-05	361.48	0.0027664	340.36	360.47	1.5274	1.6175	89.636	166.82	7.0872	25.434	0.12076
303.58	7.2845	570.26	0.0017536	296.94	309.72	1.3601	1.5686	68.039	160.39	4.7283	41.129	0.11075	2.8669e-05	366.94	0.0027253	339.07	358.92	1.5222	1.6545	106.80	165.12	6.9893	25.744	0.12892
303.67	7.2998	563.93	0.0017733	298.16	311.11	1.3646	1.6250	84.350	155.94	4.8473	40.521	0.11667	2.2810e-05	373.04	0.0026807	337.63	357.20	1.5163	1.6998	131.45	163.07	6.8829	26.096	0.13936
303.76	7.3152	556.77	0.0017961	299.53	312.67	1.3696	1.6964	110.00	151.02	4.9773	39.845	0.12503	1.7243e-05	380.01	0.0026315	335.99	355.24	1.5098	1.7577	169.50	160.48	6.7658	26.504	0.15340
303.85	7.3307	548.41	0.0018234	301.11	314.47	1.3755	1.7914	155.25	145.47	5.1207	39.071	0.13784	1.2021e-05	388.23	0.0025758	334.06	352.95	1.5021	1.8362	235.08	157.06	6.6345	26.997	0.17378
303.94	7.3461	538.14	0.0018583	303.03	316.68	1.3826	1.9289	252.30	138.94	5.2815	38.141	0.16042	7.2295e-06	398.48	0.0025095	331.68	350.11	1.4926	1.9546	371.62	152.10	6.4823	27.626	0.20751
304.04	7.3617	523.96	0.0019085	305.67	319.72	1.3925	2.1691	572.04	130.33	5.4687	36.894	0.21446	3.0312e-06	412.92	0.0024218	328.35	346.18	1.4796	2.1805	802.85	143.43	6.2934	28.542	0.28195
304.13	7.3773	467.60	0.0021386	316.47	332.25	1.4336	undefined	undefined	undefined	5.8665	32.352	undefined	6.6596e-19	467.60	0.0021386	316.47	332.25	1.4336	undefined	undefined	undefined	5.8665	32.352	undefined
