Temperature (K)	Pressure (MPa)	Density (l, kg/m3)	Volume (l, m3/kg)	Internal Energy (l, kJ/kg)	Enthalpy (l, kJ/kg)	Entropy (l, J/g*K)	Cv (l, J/g*K)	Cp (l, J/g*K)	Sound Spd. (l, m/s)	Joule-Thomson (l, K/MPa)	Viscosity (l, uPa*s)	Therm. Cond. (l, W/m*K)	Surf. Tension (l, N/m)	Density (v, kg/m3)	Volume (v, m3/kg)	Internal Energy (v, kJ/kg)	Enthalpy (v, kJ/kg)	Entropy (v, J/g*K)	Cv (v, J/g*K)	Cp (v, J/g*K)	Sound Spd. (v, m/s)	Joule-Thomson (v, K/MPa)	Viscosity (v, uPa*s)	Therm. Cond. (v, W/m*K)
230.21	0.90000	1127.9	0.00088662	106.19	106.99	0.64052	0.95641	1.9979	877.58	-0.085911	202.15	0.16032	0.013343	23.452	0.042640	396.28	434.65	2.0638	0.67073	1.0071	223.57	22.235	11.587	0.012433
230.25	0.90138	1127.7	0.00088674	106.27	107.07	0.64086	0.95636	1.9981	877.29	-0.085700	202.02	0.16027	0.013334	23.487	0.042576	396.28	434.66	2.0636	0.67086	1.0074	223.57	22.225	11.589	0.012438
230.29	0.90277	1127.6	0.00088687	106.35	107.15	0.64121	0.95632	1.9982	877.00	-0.085488	201.89	0.16022	0.013325	23.522	0.042513	396.29	434.67	2.0634	0.67100	1.0078	223.57	22.215	11.591	0.012442
230.33	0.90415	1127.4	0.00088699	106.43	107.23	0.64156	0.95627	1.9984	876.71	-0.085277	201.75	0.16017	0.013316	23.558	0.042449	396.30	434.68	2.0632	0.67113	1.0081	223.57	22.205	11.594	0.012446
230.37	0.90553	1127.3	0.00088711	106.51	107.31	0.64190	0.95622	1.9986	876.41	-0.085066	201.62	0.16012	0.013307	23.593	0.042386	396.31	434.69	2.0630	0.67127	1.0085	223.57	22.195	11.596	0.012450
230.41	0.90691	1127.1	0.00088723	106.59	107.40	0.64225	0.95617	1.9988	876.12	-0.084854	201.49	0.16007	0.013297	23.628	0.042322	396.32	434.70	2.0628	0.67140	1.0088	223.57	22.184	11.598	0.012455
230.45	0.90830	1126.9	0.00088736	106.67	107.48	0.64260	0.95612	1.9990	875.83	-0.084643	201.36	0.16002	0.013288	23.663	0.042259	396.33	434.71	2.0626	0.67153	1.0092	223.57	22.174	11.600	0.012459
230.49	0.90968	1126.8	0.00088748	106.75	107.56	0.64294	0.95607	1.9991	875.54	-0.084432	201.22	0.15998	0.013279	23.699	0.042197	396.34	434.72	2.0624	0.67167	1.0095	223.57	22.164	11.602	0.012463
230.53	0.91106	1126.6	0.00088760	106.83	107.64	0.64329	0.95602	1.9993	875.25	-0.084220	201.09	0.15993	0.013270	23.734	0.042134	396.34	434.73	2.0622	0.67180	1.0099	223.57	22.154	11.604	0.012468
230.57	0.91245	1126.5	0.00088772	106.91	107.72	0.64363	0.95597	1.9995	874.96	-0.084009	200.96	0.15988	0.013261	23.769	0.042071	396.35	434.74	2.0619	0.67194	1.0102	223.57	22.144	11.606	0.012472
230.61	0.91383	1126.3	0.00088785	106.99	107.80	0.64397	0.95592	1.9997	874.67	-0.083797	200.83	0.15983	0.013252	23.804	0.042009	396.36	434.75	2.0617	0.67207	1.0106	223.57	22.134	11.609	0.012476
230.65	0.91521	1126.2	0.00088797	107.07	107.88	0.64432	0.95587	1.9999	874.38	-0.083586	200.70	0.15978	0.013243	23.840	0.041947	396.37	434.76	2.0615	0.67220	1.0109	223.57	22.124	11.611	0.012481
230.69	0.91659	1126.0	0.00088809	107.15	107.96	0.64466	0.95582	2.0000	874.09	-0.083374	200.56	0.15973	0.013234	23.875	0.041885	396.38	434.77	2.0613	0.67234	1.0113	223.57	22.114	11.613	0.012485
230.73	0.91798	1125.9	0.00088821	107.22	108.04	0.64500	0.95577	2.0002	873.80	-0.083163	200.43	0.15968	0.013225	23.910	0.041823	396.39	434.78	2.0611	0.67247	1.0116	223.57	22.104	11.615	0.012489
230.77	0.91936	1125.7	0.00088834	107.30	108.12	0.64534	0.95573	2.0004	873.51	-0.082951	200.30	0.15963	0.013216	23.945	0.041762	396.39	434.79	2.0609	0.67261	1.0120	223.57	22.094	11.617	0.012493
230.81	0.92074	1125.5	0.00088846	107.38	108.20	0.64568	0.95568	2.0006	873.22	-0.082740	200.17	0.15959	0.013207	23.981	0.041700	396.40	434.80	2.0607	0.67274	1.0123	223.56	22.084	11.619	0.012498
230.85	0.92213	1125.4	0.00088858	107.46	108.28	0.64603	0.95563	2.0007	872.94	-0.082528	200.04	0.15954	0.013198	24.016	0.041639	396.41	434.81	2.0605	0.67287	1.0127	223.56	22.074	11.621	0.012502
230.89	0.92351	1125.2	0.00088870	107.54	108.36	0.64637	0.95558	2.0009	872.65	-0.082316	199.91	0.15949	0.013189	24.051	0.041578	396.42	434.82	2.0603	0.67301	1.0130	223.56	22.064	11.623	0.012506
230.93	0.92489	1125.1	0.00088882	107.62	108.44	0.64671	0.95553	2.0011	872.36	-0.082105	199.78	0.15944	0.013180	24.087	0.041517	396.43	434.83	2.0601	0.67314	1.0133	223.56	22.054	11.626	0.012511
230.97	0.92627	1124.9	0.00088894	107.70	108.52	0.64705	0.95548	2.0013	872.07	-0.081893	199.65	0.15939	0.013171	24.122	0.041456	396.44	434.84	2.0598	0.67327	1.0137	223.56	22.044	11.628	0.012515
231.01	0.92766	1124.8	0.00088907	107.77	108.60	0.64739	0.95544	2.0015	871.79	-0.081682	199.52	0.15934	0.013162	24.157	0.041396	396.44	434.84	2.0596	0.67341	1.0140	223.56	22.034	11.630	0.012519
231.05	0.92904	1124.6	0.00088919	107.85	108.68	0.64773	0.95539	2.0017	871.50	-0.081470	199.40	0.15929	0.013153	24.192	0.041335	396.45	434.85	2.0594	0.67354	1.0144	223.56	22.024	11.632	0.012523
231.09	0.93042	1124.5	0.00088931	107.93	108.76	0.64806	0.95534	2.0018	871.21	-0.081258	199.27	0.15925	0.013144	24.228	0.041275	396.46	434.86	2.0592	0.67367	1.0147	223.56	22.015	11.634	0.012528
231.13	0.93181	1124.3	0.00088943	108.01	108.84	0.64840	0.95529	2.0020	870.93	-0.081047	199.14	0.15920	0.013135	24.263	0.041215	396.47	434.87	2.0590	0.67380	1.0151	223.56	22.005	11.636	0.012532
231.17	0.93319	1124.2	0.00088955	108.09	108.92	0.64874	0.95524	2.0022	870.64	-0.080835	199.01	0.15915	0.013126	24.298	0.041155	396.48	434.88	2.0588	0.67394	1.0154	223.56	21.995	11.638	0.012536
231.21	0.93457	1124.0	0.00088967	108.16	109.00	0.64908	0.95520	2.0024	870.36	-0.080623	198.88	0.15910	0.013117	24.333	0.041096	396.48	434.89	2.0586	0.67407	1.0158	223.56	21.985	11.640	0.012541
231.25	0.93595	1123.9	0.00088979	108.24	109.07	0.64941	0.95515	2.0026	870.07	-0.080411	198.75	0.15905	0.013108	24.369	0.041036	396.49	434.90	2.0584	0.67420	1.0161	223.56	21.975	11.642	0.012545
231.29	0.93734	1123.7	0.00088992	108.32	109.15	0.64975	0.95510	2.0027	869.79	-0.080200	198.63	0.15901	0.013099	24.404	0.040977	396.50	434.91	2.0582	0.67433	1.0165	223.56	21.966	11.644	0.012549
231.33	0.93872	1123.5	0.00089004	108.40	109.23	0.65009	0.95505	2.0029	869.50	-0.079988	198.50	0.15896	0.013091	24.439	0.040918	396.51	434.92	2.0580	0.67447	1.0168	223.55	21.956	11.647	0.012553
231.37	0.94010	1123.4	0.00089016	108.48	109.31	0.65042	0.95501	2.0031	869.22	-0.079776	198.37	0.15891	0.013082	24.475	0.040859	396.52	434.93	2.0578	0.67460	1.0172	223.55	21.946	11.649	0.012558
231.41	0.94148	1123.2	0.00089028	108.55	109.39	0.65076	0.95496	2.0033	868.93	-0.079564	198.24	0.15886	0.013073	24.510	0.040800	396.52	434.94	2.0576	0.67473	1.0175	223.55	21.937	11.651	0.012562
231.44	0.94287	1123.1	0.00089040	108.63	109.47	0.65109	0.95491	2.0035	868.65	-0.079352	198.12	0.15882	0.013064	24.545	0.040741	396.53	434.95	2.0574	0.67486	1.0178	223.55	21.927	11.653	0.012566
231.48	0.94425	1122.9	0.00089052	108.71	109.55	0.65143	0.95487	2.0036	868.37	-0.079140	197.99	0.15877	0.013055	24.581	0.040683	396.54	434.95	2.0572	0.67500	1.0182	223.55	21.917	11.655	0.012570
231.52	0.94563	1122.8	0.00089064	108.78	109.63	0.65176	0.95482	2.0038	868.08	-0.078929	197.87	0.15872	0.013046	24.616	0.040624	396.55	434.96	2.0570	0.67513	1.0185	223.55	21.908	11.657	0.012575
231.56	0.94702	1122.6	0.00089076	108.86	109.71	0.65210	0.95477	2.0040	867.80	-0.078717	197.74	0.15867	0.013038	24.651	0.040566	396.56	434.97	2.0568	0.67526	1.0189	223.55	21.898	11.659	0.012579
231.60	0.94840	1122.5	0.00089088	108.94	109.78	0.65243	0.95472	2.0042	867.52	-0.078505	197.61	0.15862	0.013029	24.686	0.040508	396.56	434.98	2.0566	0.67539	1.0192	223.55	21.888	11.661	0.012583
231.64	0.94978	1122.3	0.00089100	109.02	109.86	0.65276	0.95468	2.0044	867.24	-0.078293	197.49	0.15858	0.013020	24.722	0.040450	396.57	434.99	2.0564	0.67552	1.0196	223.55	21.879	11.663	0.012587
231.68	0.95116	1122.2	0.00089112	109.09	109.94	0.65310	0.95463	2.0046	866.95	-0.078081	197.36	0.15853	0.013011	24.757	0.040392	396.58	435.00	2.0562	0.67566	1.0199	223.55	21.869	11.665	0.012592
231.72	0.95255	1122.0	0.00089124	109.17	110.02	0.65343	0.95458	2.0047	866.67	-0.077869	197.24	0.15848	0.013002	24.792	0.040335	396.59	435.01	2.0560	0.67579	1.0203	223.54	21.860	11.667	0.012596
231.76	0.95393	1121.9	0.00089136	109.25	110.10	0.65376	0.95454	2.0049	866.39	-0.077657	197.11	0.15844	0.012994	24.828	0.040278	396.59	435.02	2.0557	0.67592	1.0206	223.54	21.850	11.670	0.012600
231.80	0.95531	1121.7	0.00089148	109.32	110.17	0.65409	0.95449	2.0051	866.11	-0.077445	196.99	0.15839	0.012985	24.863	0.040220	396.60	435.03	2.0555	0.67605	1.0210	223.54	21.841	11.672	0.012604
231.83	0.95670	1121.6	0.00089160	109.40	110.25	0.65442	0.95445	2.0053	865.83	-0.077233	196.86	0.15834	0.012976	24.898	0.040163	396.61	435.03	2.0553	0.67618	1.0213	223.54	21.831	11.674	0.012609
231.87	0.95808	1121.4	0.00089172	109.48	110.33	0.65475	0.95440	2.0055	865.55	-0.077021	196.74	0.15829	0.012968	24.934	0.040106	396.62	435.04	2.0551	0.67631	1.0217	223.54	21.822	11.676	0.012613
231.91	0.95946	1121.3	0.00089184	109.55	110.41	0.65508	0.95435	2.0056	865.27	-0.076808	196.61	0.15825	0.012959	24.969	0.040050	396.63	435.05	2.0549	0.67645	1.0220	223.54	21.812	11.678	0.012617
231.95	0.96084	1121.1	0.00089196	109.63	110.49	0.65541	0.95431	2.0058	864.99	-0.076596	196.49	0.15820	0.012950	25.004	0.039993	396.63	435.06	2.0547	0.67658	1.0224	223.54	21.803	11.680	0.012621
231.99	0.96223	1121.0	0.00089208	109.71	110.56	0.65574	0.95426	2.0060	864.71	-0.076384	196.37	0.15815	0.012941	25.040	0.039937	396.64	435.07	2.0545	0.67671	1.0227	223.54	21.793	11.682	0.012626
232.03	0.96361	1120.8	0.00089220	109.78	110.64	0.65607	0.95421	2.0062	864.43	-0.076172	196.24	0.15811	0.012933	25.075	0.039880	396.65	435.08	2.0543	0.67684	1.0230	223.54	21.784	11.684	0.012630
232.07	0.96499	1120.7	0.00089232	109.86	110.72	0.65640	0.95417	2.0064	864.15	-0.075960	196.12	0.15806	0.012924	25.110	0.039824	396.66	435.09	2.0541	0.67697	1.0234	223.53	21.774	11.686	0.012634
232.10	0.96638	1120.5	0.00089244	109.93	110.80	0.65673	0.95412	2.0066	863.87	-0.075748	196.00	0.15801	0.012915	25.146	0.039768	396.66	435.10	2.0539	0.67710	1.0237	223.53	21.765	11.688	0.012638
232.14	0.96776	1120.4	0.00089256	110.01	110.87	0.65706	0.95408	2.0067	863.60	-0.075535	195.88	0.15797	0.012907	25.181	0.039712	396.67	435.10	2.0537	0.67723	1.0241	223.53	21.756	11.690	0.012643
232.18	0.96914	1120.2	0.00089268	110.09	110.95	0.65739	0.95403	2.0069	863.32	-0.075323	195.75	0.15792	0.012898	25.216	0.039657	396.68	435.11	2.0535	0.67736	1.0244	223.53	21.746	11.692	0.012647
232.22	0.97052	1120.1	0.00089280	110.16	111.03	0.65771	0.95399	2.0071	863.04	-0.075111	195.63	0.15787	0.012890	25.252	0.039601	396.69	435.12	2.0533	0.67749	1.0248	223.53	21.737	11.694	0.012651
232.26	0.97191	1119.9	0.00089292	110.24	111.11	0.65804	0.95394	2.0073	862.76	-0.074899	195.51	0.15783	0.012881	25.287	0.039546	396.69	435.13	2.0531	0.67762	1.0251	223.53	21.728	11.696	0.012655
232.30	0.97329	1119.8	0.00089304	110.31	111.18	0.65837	0.95389	2.0075	862.49	-0.074686	195.39	0.15778	0.012872	25.322	0.039491	396.70	435.14	2.0529	0.67775	1.0255	223.53	21.718	11.698	0.012659
232.33	0.97467	1119.6	0.00089316	110.39	111.26	0.65869	0.95385	2.0077	862.21	-0.074474	195.27	0.15773	0.012864	25.358	0.039436	396.71	435.15	2.0527	0.67788	1.0258	223.53	21.709	11.701	0.012664
232.37	0.97606	1119.5	0.00089328	110.46	111.34	0.65902	0.95380	2.0079	861.93	-0.074262	195.14	0.15769	0.012855	25.393	0.039381	396.72	435.15	2.0525	0.67802	1.0262	223.53	21.700	11.703	0.012668
232.41	0.97744	1119.3	0.00089340	110.54	111.41	0.65934	0.95376	2.0080	861.65	-0.074049	195.02	0.15764	0.012847	25.428	0.039326	396.72	435.16	2.0523	0.67815	1.0265	223.52	21.690	11.705	0.012672
232.45	0.97882	1119.2	0.00089352	110.62	111.49	0.65967	0.95371	2.0082	861.38	-0.073837	194.90	0.15759	0.012838	25.464	0.039271	396.73	435.17	2.0521	0.67828	1.0269	223.52	21.681	11.707	0.012676
232.49	0.98020	1119.0	0.00089364	110.69	111.57	0.65999	0.95367	2.0084	861.10	-0.073624	194.78	0.15755	0.012829	25.499	0.039217	396.74	435.18	2.0520	0.67841	1.0272	223.52	21.672	11.709	0.012680
232.53	0.98159	1118.9	0.00089375	110.77	111.64	0.66032	0.95362	2.0086	860.83	-0.073412	194.66	0.15750	0.012821	25.535	0.039163	396.75	435.19	2.0518	0.67854	1.0275	223.52	21.663	11.711	0.012685
232.56	0.98297	1118.7	0.00089387	110.84	111.72	0.66064	0.95358	2.0088	860.55	-0.073200	194.54	0.15745	0.012812	25.570	0.039108	396.75	435.20	2.0516	0.67867	1.0279	223.52	21.654	11.713	0.012689
232.60	0.98435	1118.6	0.00089399	110.92	111.80	0.66096	0.95353	2.0090	860.28	-0.072987	194.42	0.15741	0.012804	25.605	0.039054	396.76	435.20	2.0514	0.67880	1.0282	223.52	21.644	11.715	0.012693
232.64	0.98574	1118.4	0.00089411	110.99	111.87	0.66129	0.95349	2.0091	860.00	-0.072775	194.30	0.15736	0.012795	25.641	0.039001	396.77	435.21	2.0512	0.67893	1.0286	223.52	21.635	11.717	0.012697
232.68	0.98712	1118.3	0.00089423	111.07	111.95	0.66161	0.95344	2.0093	859.73	-0.072562	194.18	0.15732	0.012787	25.676	0.038947	396.78	435.22	2.0510	0.67906	1.0289	223.51	21.626	11.719	0.012701
232.71	0.98850	1118.1	0.00089435	111.14	112.03	0.66193	0.95340	2.0095	859.45	-0.072349	194.06	0.15727	0.012778	25.711	0.038893	396.78	435.23	2.0508	0.67919	1.0293	223.51	21.617	11.721	0.012706
232.75	0.98988	1118.0	0.00089447	111.22	112.10	0.66226	0.95335	2.0097	859.18	-0.072137	193.94	0.15722	0.012770	25.747	0.038840	396.79	435.24	2.0506	0.67932	1.0296	223.51	21.608	11.723	0.012710
232.79	0.99127	1117.8	0.00089459	111.29	112.18	0.66258	0.95331	2.0099	858.91	-0.071924	193.82	0.15718	0.012761	25.782	0.038787	396.80	435.25	2.0504	0.67944	1.0300	223.51	21.599	11.725	0.012714
232.83	0.99265	1117.7	0.00089470	111.37	112.25	0.66290	0.95327	2.0101	858.63	-0.071712	193.70	0.15713	0.012753	25.818	0.038733	396.80	435.25	2.0502	0.67957	1.0303	223.51	21.590	11.727	0.012718
232.87	0.99403	1117.5	0.00089482	111.44	112.33	0.66322	0.95322	2.0103	858.36	-0.071499	193.58	0.15709	0.012744	25.853	0.038680	396.81	435.26	2.0500	0.67970	1.0307	223.51	21.581	11.729	0.012722
232.90	0.99542	1117.4	0.00089494	111.52	112.41	0.66354	0.95318	2.0104	858.09	-0.071286	193.47	0.15704	0.012736	25.888	0.038627	396.82	435.27	2.0498	0.67983	1.0310	223.51	21.572	11.731	0.012727
232.94	0.99680	1117.2	0.00089506	111.59	112.48	0.66386	0.95313	2.0106	857.81	-0.071074	193.35	0.15700	0.012728	25.924	0.038575	396.83	435.28	2.0496	0.67996	1.0314	223.50	21.562	11.733	0.012731
232.98	0.99818	1117.1	0.00089518	111.66	112.56	0.66418	0.95309	2.0108	857.54	-0.070861	193.23	0.15695	0.012719	25.959	0.038522	396.83	435.29	2.0494	0.68009	1.0317	223.50	21.553	11.735	0.012735
233.02	0.99956	1117.0	0.00089530	111.74	112.63	0.66450	0.95304	2.0110	857.27	-0.070648	193.11	0.15690	0.012711	25.994	0.038470	396.84	435.29	2.0492	0.68022	1.0320	223.50	21.544	11.737	0.012739
233.05	1.0009	1116.8	0.00089541	111.81	112.71	0.66482	0.95300	2.0112	857.00	-0.070435	192.99	0.15686	0.012702	26.030	0.038417	396.85	435.30	2.0490	0.68035	1.0324	223.50	21.535	11.739	0.012743
233.09	1.0023	1116.7	0.00089553	111.89	112.78	0.66514	0.95296	2.0114	856.73	-0.070222	192.88	0.15681	0.012694	26.065	0.038365	396.86	435.31	2.0488	0.68048	1.0327	223.50	21.527	11.741	0.012748
233.13	1.0037	1116.5	0.00089565	111.96	112.86	0.66546	0.95291	2.0116	856.46	-0.070010	192.76	0.15677	0.012686	26.101	0.038313	396.86	435.32	2.0486	0.68061	1.0331	223.50	21.518	11.743	0.012752
233.17	1.0051	1116.4	0.00089577	112.04	112.94	0.66577	0.95287	2.0117	856.18	-0.069797	192.64	0.15672	0.012677	26.136	0.038261	396.87	435.33	2.0484	0.68074	1.0334	223.50	21.509	11.745	0.012756
233.20	1.0065	1116.2	0.00089588	112.11	113.01	0.66609	0.95282	2.0119	855.91	-0.069584	192.52	0.15668	0.012669	26.171	0.038210	396.88	435.33	2.0482	0.68087	1.0338	223.49	21.500	11.747	0.012760
233.24	1.0079	1116.1	0.00089600	112.18	113.09	0.66641	0.95278	2.0121	855.64	-0.069371	192.41	0.15663	0.012660	26.207	0.038158	396.88	435.34	2.0481	0.68099	1.0341	223.49	21.491	11.749	0.012764
233.28	1.0092	1115.9	0.00089612	112.26	113.16	0.66673	0.95274	2.0123	855.37	-0.069158	192.29	0.15659	0.012652	26.242	0.038106	396.89	435.35	2.0479	0.68112	1.0345	223.49	21.482	11.751	0.012768
233.32	1.0106	1115.8	0.00089624	112.33	113.24	0.66704	0.95269	2.0125	855.10	-0.068945	192.18	0.15654	0.012644	26.278	0.038055	396.90	435.36	2.0477	0.68125	1.0348	223.49	21.473	11.753	0.012773
233.35	1.0120	1115.6	0.00089636	112.40	113.31	0.66736	0.95265	2.0127	854.83	-0.068732	192.06	0.15650	0.012635	26.313	0.038004	396.90	435.36	2.0475	0.68138	1.0352	223.49	21.464	11.755	0.012777
233.39	1.0134	1115.5	0.00089647	112.48	113.39	0.66768	0.95261	2.0129	854.56	-0.068519	191.94	0.15645	0.012627	26.349	0.037953	396.91	435.37	2.0473	0.68151	1.0355	223.49	21.455	11.757	0.012781
233.43	1.0148	1115.3	0.00089659	112.55	113.46	0.66799	0.95256	2.0130	854.30	-0.068306	191.83	0.15641	0.012619	26.384	0.037902	396.92	435.38	2.0471	0.68164	1.0359	223.48	21.446	11.759	0.012785
233.46	1.0162	1115.2	0.00089671	112.62	113.54	0.66831	0.95252	2.0132	854.03	-0.068093	191.71	0.15636	0.012610	26.419	0.037851	396.93	435.39	2.0469	0.68177	1.0362	223.48	21.438	11.761	0.012789
233.50	1.0175	1115.0	0.00089683	112.70	113.61	0.66862	0.95248	2.0134	853.76	-0.067880	191.60	0.15632	0.012602	26.455	0.037800	396.93	435.40	2.0467	0.68189	1.0366	223.48	21.429	11.763	0.012793
233.54	1.0189	1114.9	0.00089694	112.77	113.69	0.66894	0.95243	2.0136	853.49	-0.067667	191.48	0.15627	0.012594	26.490	0.037750	396.94	435.40	2.0465	0.68202	1.0369	223.48	21.420	11.765	0.012798
233.57	1.0203	1114.8	0.00089706	112.85	113.76	0.66925	0.95239	2.0138	853.22	-0.067454	191.37	0.15623	0.012586	26.526	0.037699	396.95	435.41	2.0463	0.68215	1.0372	223.48	21.411	11.767	0.012802
233.61	1.0217	1114.6	0.00089718	112.92	113.83	0.66956	0.95235	2.0140	852.95	-0.067241	191.25	0.15618	0.012577	26.561	0.037649	396.95	435.42	2.0461	0.68228	1.0376	223.48	21.402	11.769	0.012806
233.65	1.0231	1114.5	0.00089729	112.99	113.91	0.66988	0.95231	2.0142	852.69	-0.067027	191.14	0.15614	0.012569	26.597	0.037599	396.96	435.43	2.0459	0.68241	1.0379	223.47	21.394	11.771	0.012810
233.69	1.0245	1114.3	0.00089741	113.06	113.98	0.67019	0.95226	2.0144	852.42	-0.066814	191.02	0.15609	0.012561	26.632	0.037549	396.97	435.43	2.0458	0.68253	1.0383	223.47	21.385	11.773	0.012814
233.72	1.0258	1114.2	0.00089753	113.14	114.06	0.67050	0.95222	2.0145	852.15	-0.066601	190.91	0.15605	0.012553	26.667	0.037499	396.97	435.44	2.0456	0.68266	1.0386	223.47	21.376	11.775	0.012818
233.76	1.0272	1114.0	0.00089765	113.21	114.13	0.67082	0.95218	2.0147	851.88	-0.066388	190.79	0.15600	0.012544	26.703	0.037449	396.98	435.45	2.0454	0.68279	1.0390	223.47	21.367	11.777	0.012823
233.80	1.0286	1113.9	0.00089776	113.28	114.21	0.67113	0.95214	2.0149	851.62	-0.066174	190.68	0.15596	0.012536	26.738	0.037399	396.99	435.46	2.0452	0.68292	1.0393	223.47	21.359	11.779	0.012827
233.83	1.0300	1113.7	0.00089788	113.36	114.28	0.67144	0.95209	2.0151	851.35	-0.065961	190.57	0.15591	0.012528	26.774	0.037350	396.99	435.46	2.0450	0.68305	1.0397	223.47	21.350	11.781	0.012831
233.87	1.0314	1113.6	0.00089800	113.43	114.35	0.67175	0.95205	2.0153	851.09	-0.065748	190.45	0.15587	0.012520	26.809	0.037301	397.00	435.47	2.0448	0.68317	1.0400	223.46	21.341	11.783	0.012835
233.91	1.0328	1113.4	0.00089811	113.50	114.43	0.67206	0.95201	2.0155	850.82	-0.065534	190.34	0.15583	0.012512	26.845	0.037251	397.01	435.48	2.0446	0.68330	1.0404	223.46	21.333	11.785	0.012839
233.94	1.0341	1113.3	0.00089823	113.57	114.50	0.67237	0.95197	2.0157	850.55	-0.065321	190.23	0.15578	0.012503	26.880	0.037202	397.01	435.49	2.0444	0.68343	1.0407	223.46	21.324	11.787	0.012843
233.98	1.0355	1113.2	0.00089835	113.65	114.58	0.67269	0.95192	2.0159	850.29	-0.065107	190.11	0.15574	0.012495	26.916	0.037153	397.02	435.49	2.0442	0.68356	1.0411	223.46	21.316	11.789	0.012847
234.02	1.0369	1113.0	0.00089846	113.72	114.65	0.67300	0.95188	2.0160	850.02	-0.064894	190.00	0.15569	0.012487	26.951	0.037104	397.03	435.50	2.0441	0.68368	1.0414	223.46	21.307	11.791	0.012852
234.05	1.0383	1112.9	0.00089858	113.79	114.72	0.67331	0.95184	2.0162	849.76	-0.064681	189.89	0.15565	0.012479	26.987	0.037056	397.03	435.51	2.0439	0.68381	1.0417	223.45	21.298	11.793	0.012856
234.09	1.0397	1112.7	0.00089870	113.86	114.80	0.67361	0.95180	2.0164	849.49	-0.064467	189.78	0.15560	0.012471	27.022	0.037007	397.04	435.52	2.0437	0.68394	1.0421	223.45	21.290	11.795	0.012860
234.13	1.0410	1112.6	0.00089881	113.94	114.87	0.67392	0.95176	2.0166	849.23	-0.064253	189.66	0.15556	0.012463	27.057	0.036958	397.05	435.52	2.0435	0.68406	1.0424	223.45	21.281	11.797	0.012864
234.16	1.0424	1112.4	0.00089893	114.01	114.95	0.67423	0.95171	2.0168	848.97	-0.064040	189.55	0.15552	0.012455	27.093	0.036910	397.05	435.53	2.0433	0.68419	1.0428	223.45	21.273	11.799	0.012868
234.20	1.0438	1112.3	0.00089904	114.08	115.02	0.67454	0.95167	2.0170	848.70	-0.063826	189.44	0.15547	0.012446	27.128	0.036862	397.06	435.54	2.0431	0.68432	1.0431	223.45	21.264	11.801	0.012872
234.23	1.0452	1112.1	0.00089916	114.15	115.09	0.67485	0.95163	2.0172	848.44	-0.063613	189.33	0.15543	0.012438	27.164	0.036814	397.07	435.54	2.0429	0.68444	1.0435	223.44	21.256	11.803	0.012876
234.27	1.0466	1112.0	0.00089928	114.22	115.17	0.67516	0.95159	2.0174	848.17	-0.063399	189.22	0.15538	0.012430	27.199	0.036766	397.07	435.55	2.0427	0.68457	1.0438	223.44	21.247	11.805	0.012881
234.31	1.0480	1111.9	0.00089939	114.30	115.24	0.67547	0.95155	2.0176	847.91	-0.063185	189.11	0.15534	0.012422	27.235	0.036718	397.08	435.56	2.0426	0.68470	1.0442	223.44	21.239	11.807	0.012885
234.34	1.0493	1111.7	0.00089951	114.37	115.31	0.67577	0.95150	2.0177	847.65	-0.062972	189.00	0.15530	0.012414	27.270	0.036670	397.09	435.57	2.0424	0.68483	1.0445	223.44	21.230	11.809	0.012889
234.38	1.0507	1111.6	0.00089962	114.44	115.39	0.67608	0.95146	2.0179	847.39	-0.062758	188.88	0.15525	0.012406	27.306	0.036622	397.09	435.57	2.0422	0.68495	1.0449	223.44	21.222	11.811	0.012893
234.42	1.0521	1111.4	0.00089974	114.51	115.46	0.67639	0.95142	2.0181	847.12	-0.062544	188.77	0.15521	0.012398	27.341	0.036575	397.10	435.58	2.0420	0.68508	1.0452	223.43	21.213	11.813	0.012897
234.45	1.0535	1111.3	0.00089986	114.58	115.53	0.67669	0.95138	2.0183	846.86	-0.062330	188.66	0.15517	0.012390	27.377	0.036527	397.11	435.59	2.0418	0.68520	1.0456	223.43	21.205	11.815	0.012901
234.49	1.0549	1111.1	0.00089997	114.66	115.60	0.67700	0.95134	2.0185	846.60	-0.062117	188.55	0.15512	0.012382	27.412	0.036480	397.11	435.59	2.0416	0.68533	1.0459	223.43	21.196	11.817	0.012905
234.52	1.0563	1111.0	0.00090009	114.73	115.68	0.67730	0.95130	2.0187	846.34	-0.061903	188.44	0.15508	0.012374	27.448	0.036433	397.12	435.60	2.0414	0.68546	1.0462	223.43	21.188	11.819	0.012909
234.56	1.0576	1110.9	0.00090020	114.80	115.75	0.67761	0.95126	2.0189	846.08	-0.061689	188.33	0.15503	0.012366	27.483	0.036386	397.13	435.61	2.0413	0.68558	1.0466	223.43	21.179	11.821	0.012914
234.60	1.0590	1110.7	0.00090032	114.87	115.82	0.67791	0.95122	2.0191	845.82	-0.061475	188.22	0.15499	0.012358	27.519	0.036339	397.13	435.62	2.0411	0.68571	1.0469	223.42	21.171	11.823	0.012918
234.63	1.0604	1110.6	0.00090043	114.94	115.90	0.67822	0.95117	2.0193	845.55	-0.061261	188.11	0.15495	0.012350	27.554	0.036292	397.14	435.62	2.0409	0.68584	1.0473	223.42	21.163	11.825	0.012922
234.67	1.0618	1110.4	0.00090055	115.01	115.97	0.67852	0.95113	2.0194	845.29	-0.061047	188.00	0.15490	0.012342	27.590	0.036245	397.14	435.63	2.0407	0.68596	1.0476	223.42	21.154	11.827	0.012926
234.70	1.0632	1110.3	0.00090067	115.08	116.04	0.67883	0.95109	2.0196	845.03	-0.060833	187.89	0.15486	0.012334	27.625	0.036199	397.15	435.64	2.0405	0.68609	1.0480	223.42	21.146	11.829	0.012930
234.74	1.0646	1110.1	0.00090078	115.15	116.11	0.67913	0.95105	2.0198	844.77	-0.060619	187.79	0.15482	0.012326	27.661	0.036152	397.16	435.64	2.0403	0.68621	1.0483	223.42	21.138	11.831	0.012934
234.77	1.0659	1110.0	0.00090090	115.23	116.19	0.67943	0.95101	2.0200	844.51	-0.060405	187.68	0.15477	0.012318	27.696	0.036106	397.16	435.65	2.0402	0.68634	1.0487	223.41	21.129	11.833	0.012938
234.81	1.0673	1109.9	0.00090101	115.30	116.26	0.67974	0.95097	2.0202	844.25	-0.060191	187.57	0.15473	0.012310	27.732	0.036060	397.17	435.66	2.0400	0.68647	1.0490	223.41	21.121	11.835	0.012942
234.85	1.0687	1109.7	0.00090113	115.37	116.33	0.68004	0.95093	2.0204	843.99	-0.059977	187.46	0.15469	0.012302	27.767	0.036013	397.18	435.66	2.0398	0.68659	1.0494	223.41	21.113	11.837	0.012947
234.88	1.0701	1109.6	0.00090124	115.44	116.40	0.68034	0.95089	2.0206	843.73	-0.059763	187.35	0.15464	0.012294	27.803	0.035967	397.18	435.67	2.0396	0.68672	1.0497	223.41	21.104	11.839	0.012951
234.92	1.0715	1109.4	0.00090136	115.51	116.48	0.68064	0.95085	2.0208	843.48	-0.059548	187.24	0.15460	0.012286	27.838	0.035921	397.19	435.68	2.0394	0.68684	1.0501	223.41	21.096	11.840	0.012955
234.95	1.0729	1109.3	0.00090147	115.58	116.55	0.68095	0.95081	2.0210	843.22	-0.059334	187.13	0.15456	0.012278	27.874	0.035876	397.19	435.68	2.0392	0.68697	1.0504	223.40	21.088	11.842	0.012959
234.99	1.0742	1109.2	0.00090159	115.65	116.62	0.68125	0.95077	2.0212	842.96	-0.059120	187.03	0.15451	0.012270	27.910	0.035830	397.20	435.69	2.0391	0.68709	1.0508	223.40	21.080	11.844	0.012963
235.02	1.0756	1109.0	0.00090170	115.72	116.69	0.68155	0.95073	2.0214	842.70	-0.058906	186.92	0.15447	0.012262	27.945	0.035784	397.21	435.70	2.0389	0.68722	1.0511	223.40	21.071	11.846	0.012967
235.06	1.0770	1108.9	0.00090182	115.79	116.76	0.68185	0.95069	2.0215	842.44	-0.058691	186.81	0.15443	0.012254	27.981	0.035739	397.21	435.70	2.0387	0.68735	1.0514	223.40	21.063	11.848	0.012971
235.10	1.0784	1108.7	0.00090193	115.86	116.84	0.68215	0.95065	2.0217	842.18	-0.058477	186.70	0.15439	0.012246	28.016	0.035694	397.22	435.71	2.0385	0.68747	1.0518	223.39	21.055	11.850	0.012975
235.13	1.0798	1108.6	0.00090205	115.93	116.91	0.68245	0.95061	2.0219	841.93	-0.058263	186.60	0.15434	0.012239	28.052	0.035648	397.23	435.72	2.0383	0.68760	1.0521	223.39	21.047	11.852	0.012979
235.17	1.0812	1108.4	0.00090216	116.00	116.98	0.68275	0.95057	2.0221	841.67	-0.058048	186.49	0.15430	0.012231	28.087	0.035603	397.23	435.72	2.0382	0.68772	1.0525	223.39	21.039	11.854	0.012983
235.20	1.0825	1108.3	0.00090228	116.07	117.05	0.68305	0.95053	2.0223	841.41	-0.057834	186.38	0.15426	0.012223	28.123	0.035558	397.24	435.73	2.0380	0.68785	1.0528	223.39	21.031	11.856	0.012988
235.24	1.0839	1108.2	0.00090239	116.14	117.12	0.68335	0.95049	2.0225	841.15	-0.057619	186.28	0.15421	0.012215	28.158	0.035513	397.24	435.74	2.0378	0.68797	1.0532	223.39	21.022	11.858	0.012992
235.27	1.0853	1108.0	0.00090251	116.21	117.19	0.68365	0.95045	2.0227	840.90	-0.057405	186.17	0.15417	0.012207	28.194	0.035469	397.25	435.74	2.0376	0.68810	1.0535	223.38	21.014	11.860	0.012996
235.31	1.0867	1107.9	0.00090262	116.28	117.27	0.68395	0.95041	2.0229	840.64	-0.057190	186.06	0.15413	0.012199	28.229	0.035424	397.26	435.75	2.0374	0.68822	1.0539	223.38	21.006	11.862	0.013000
235.34	1.0881	1107.7	0.00090274	116.35	117.34	0.68425	0.95037	2.0231	840.39	-0.056976	185.96	0.15409	0.012191	28.265	0.035379	397.26	435.76	2.0373	0.68835	1.0542	223.38	20.998	11.864	0.013004
235.38	1.0894	1107.6	0.00090285	116.42	117.41	0.68454	0.95033	2.0233	840.13	-0.056761	185.85	0.15404	0.012184	28.301	0.035335	397.27	435.76	2.0371	0.68847	1.0546	223.38	20.990	11.866	0.013008
235.41	1.0908	1107.5	0.00090296	116.49	117.48	0.68484	0.95029	2.0235	839.87	-0.056547	185.74	0.15400	0.012176	28.336	0.035291	397.27	435.77	2.0369	0.68860	1.0549	223.37	20.982	11.868	0.013012
235.45	1.0922	1107.3	0.00090308	116.56	117.55	0.68514	0.95025	2.0237	839.62	-0.056332	185.64	0.15396	0.012168	28.372	0.035246	397.28	435.78	2.0367	0.68872	1.0553	223.37	20.974	11.870	0.013016
235.48	1.0936	1107.2	0.00090319	116.63	117.62	0.68544	0.95021	2.0238	839.36	-0.056117	185.53	0.15392	0.012160	28.407	0.035202	397.29	435.78	2.0365	0.68885	1.0556	223.37	20.966	11.871	0.013020
235.52	1.0950	1107.0	0.00090331	116.70	117.69	0.68573	0.95017	2.0240	839.11	-0.055903	185.43	0.15387	0.012152	28.443	0.035158	397.29	435.79	2.0364	0.68897	1.0560	223.37	20.958	11.873	0.013024
235.55	1.0964	1106.9	0.00090342	116.77	117.76	0.68603	0.95013	2.0242	838.85	-0.055688	185.32	0.15383	0.012145	28.478	0.035114	397.30	435.80	2.0362	0.68909	1.0563	223.37	20.950	11.875	0.013028
235.59	1.0977	1106.8	0.00090354	116.84	117.84	0.68633	0.95009	2.0244	838.60	-0.055473	185.22	0.15379	0.012137	28.514	0.035070	397.30	435.80	2.0360	0.68922	1.0567	223.36	20.942	11.877	0.013033
235.62	1.0991	1106.6	0.00090365	116.91	117.91	0.68662	0.95005	2.0246	838.34	-0.055258	185.11	0.15375	0.012129	28.550	0.035027	397.31	435.81	2.0358	0.68934	1.0570	223.36	20.934	11.879	0.013037
235.66	1.1005	1106.5	0.00090376	116.98	117.98	0.68692	0.95001	2.0248	838.09	-0.055043	185.01	0.15370	0.012121	28.585	0.034983	397.32	435.82	2.0356	0.68947	1.0573	223.36	20.926	11.881	0.013041
235.69	1.1019	1106.3	0.00090388	117.05	118.05	0.68721	0.94997	2.0250	837.83	-0.054829	184.90	0.15366	0.012114	28.621	0.034940	397.32	435.82	2.0355	0.68959	1.0577	223.36	20.918	11.883	0.013045
235.73	1.1033	1106.2	0.00090399	117.12	118.12	0.68751	0.94994	2.0252	837.58	-0.054614	184.80	0.15362	0.012106	28.656	0.034896	397.33	435.83	2.0353	0.68972	1.0580	223.35	20.910	11.885	0.013049
235.76	1.1047	1106.1	0.00090411	117.19	118.19	0.68780	0.94990	2.0254	837.33	-0.054399	184.69	0.15358	0.012098	28.692	0.034853	397.33	435.83	2.0351	0.68984	1.0584	223.35	20.902	11.887	0.013053
235.80	1.1060	1105.9	0.00090422	117.26	118.26	0.68810	0.94986	2.0256	837.07	-0.054184	184.59	0.15354	0.012090	28.728	0.034810	397.34	435.84	2.0349	0.68996	1.0587	223.35	20.894	11.889	0.013057
235.83	1.1074	1105.8	0.00090433	117.33	118.33	0.68839	0.94982	2.0258	836.82	-0.053969	184.49	0.15349	0.012083	28.763	0.034767	397.35	435.85	2.0347	0.69009	1.0591	223.35	20.886	11.891	0.013061
235.87	1.1088	1105.6	0.00090445	117.40	118.40	0.68869	0.94978	2.0260	836.57	-0.053754	184.38	0.15345	0.012075	28.799	0.034724	397.35	435.85	2.0346	0.69021	1.0594	223.34	20.878	11.893	0.013065
235.90	1.1102	1105.5	0.00090456	117.47	118.47	0.68898	0.94974	2.0262	836.31	-0.053539	184.28	0.15341	0.012067	28.834	0.034681	397.36	435.86	2.0344	0.69034	1.0598	223.34	20.870	11.895	0.013069
235.94	1.1116	1105.4	0.00090467	117.54	118.54	0.68927	0.94970	2.0264	836.06	-0.053324	184.18	0.15337	0.012059	28.870	0.034638	397.36	435.87	2.0342	0.69046	1.0601	223.34	20.862	11.896	0.013073
235.97	1.1130	1105.2	0.00090479	117.61	118.61	0.68957	0.94966	2.0265	835.81	-0.053109	184.07	0.15333	0.012052	28.906	0.034595	397.37	435.87	2.0340	0.69058	1.0605	223.34	20.854	11.898	0.013077
236.01	1.1143	1105.1	0.00090490	117.68	118.68	0.68986	0.94963	2.0267	835.56	-0.052893	183.97	0.15328	0.012044	28.941	0.034553	397.37	435.88	2.0339	0.69071	1.0608	223.33	20.846	11.900	0.013081
236.04	1.1157	1105.0	0.00090502	117.74	118.75	0.69015	0.94959	2.0269	835.31	-0.052678	183.87	0.15324	0.012036	28.977	0.034510	397.38	435.88	2.0337	0.69083	1.0612	223.33	20.838	11.902	0.013085
236.08	1.1171	1104.8	0.00090513	117.81	118.82	0.69044	0.94955	2.0271	835.05	-0.052463	183.76	0.15320	0.012029	29.013	0.034468	397.39	435.89	2.0335	0.69096	1.0615	223.33	20.831	11.904	0.013090
236.11	1.1185	1104.7	0.00090524	117.88	118.89	0.69074	0.94951	2.0273	834.80	-0.052248	183.66	0.15316	0.012021	29.048	0.034426	397.39	435.90	2.0333	0.69108	1.0619	223.33	20.823	11.906	0.013094
236.14	1.1199	1104.5	0.00090536	117.95	118.96	0.69103	0.94947	2.0275	834.55	-0.052032	183.56	0.15312	0.012013	29.084	0.034383	397.40	435.90	2.0332	0.69120	1.0622	223.32	20.815	11.908	0.013098
236.18	1.1213	1104.4	0.00090547	118.02	119.03	0.69132	0.94943	2.0277	834.30	-0.051817	183.46	0.15308	0.012006	29.119	0.034341	397.40	435.91	2.0330	0.69133	1.0626	223.32	20.807	11.910	0.013102
236.21	1.1226	1104.3	0.00090558	118.09	119.10	0.69161	0.94940	2.0279	834.05	-0.051602	183.35	0.15303	0.011998	29.155	0.034299	397.41	435.91	2.0328	0.69145	1.0629	223.32	20.799	11.912	0.013106
236.25	1.1240	1104.1	0.00090570	118.16	119.17	0.69190	0.94936	2.0281	833.80	-0.051386	183.25	0.15299	0.011991	29.191	0.034258	397.41	435.92	2.0326	0.69157	1.0632	223.32	20.791	11.914	0.013110
236.28	1.1254	1104.0	0.00090581	118.23	119.24	0.69219	0.94932	2.0283	833.55	-0.051171	183.15	0.15295	0.011983	29.226	0.034216	397.42	435.93	2.0325	0.69170	1.0636	223.31	20.784	11.916	0.013114
236.32	1.1268	1103.8	0.00090592	118.29	119.31	0.69248	0.94928	2.0285	833.30	-0.050955	183.05	0.15291	0.011975	29.262	0.034174	397.43	435.93	2.0323	0.69182	1.0639	223.31	20.776	11.917	0.013118
236.35	1.1282	1103.7	0.00090604	118.36	119.38	0.69277	0.94924	2.0287	833.05	-0.050740	182.95	0.15287	0.011968	29.298	0.034133	397.43	435.94	2.0321	0.69194	1.0643	223.31	20.768	11.919	0.013122
236.39	1.1296	1103.6	0.00090615	118.43	119.45	0.69306	0.94920	2.0289	832.80	-0.050524	182.85	0.15283	0.011960	29.333	0.034091	397.44	435.94	2.0319	0.69207	1.0646	223.31	20.760	11.921	0.013126
236.42	1.1309	1103.4	0.00090626	118.50	119.52	0.69335	0.94917	2.0291	832.55	-0.050309	182.74	0.15279	0.011953	29.369	0.034050	397.44	435.95	2.0318	0.69219	1.0650	223.30	20.753	11.923	0.013130
236.45	1.1323	1103.3	0.00090637	118.57	119.59	0.69364	0.94913	2.0293	832.30	-0.050093	182.64	0.15274	0.011945	29.405	0.034008	397.45	435.96	2.0316	0.69231	1.0653	223.30	20.745	11.925	0.013134
236.49	1.1337	1103.2	0.00090649	118.63	119.66	0.69393	0.94909	2.0295	832.05	-0.049878	182.54	0.15270	0.011937	29.440	0.033967	397.45	435.96	2.0314	0.69243	1.0657	223.30	20.737	11.927	0.013138
236.52	1.1351	1103.0	0.00090660	118.70	119.73	0.69422	0.94905	2.0297	831.80	-0.049662	182.44	0.15266	0.011930	29.476	0.033926	397.46	435.97	2.0312	0.69256	1.0660	223.29	20.730	11.929	0.013142
236.56	1.1365	1102.9	0.00090671	118.77	119.80	0.69450	0.94902	2.0298	831.55	-0.049446	182.34	0.15262	0.011922	29.512	0.033885	397.46	435.97	2.0311	0.69268	1.0664	223.29	20.722	11.931	0.013146
236.59	1.1378	1102.7	0.00090683	118.84	119.87	0.69479	0.94898	2.0300	831.31	-0.049230	182.24	0.15258	0.011915	29.547	0.033844	397.47	435.98	2.0309	0.69280	1.0667	223.29	20.714	11.933	0.013150
236.62	1.1392	1102.6	0.00090694	118.91	119.94	0.69508	0.94894	2.0302	831.06	-0.049015	182.14	0.15254	0.011907	29.583	0.033803	397.48	435.98	2.0307	0.69293	1.0671	223.29	20.707	11.934	0.013154
236.66	1.1406	1102.5	0.00090705	118.97	120.01	0.69537	0.94890	2.0304	830.81	-0.048799	182.04	0.15250	0.011900	29.619	0.033763	397.48	435.99	2.0305	0.69305	1.0674	223.28	20.699	11.936	0.013158
236.69	1.1420	1102.3	0.00090716	119.04	120.08	0.69565	0.94887	2.0306	830.56	-0.048583	181.94	0.15246	0.011892	29.654	0.033722	397.49	436.00	2.0304	0.69317	1.0678	223.28	20.691	11.938	0.013163
236.73	1.1434	1102.2	0.00090728	119.11	120.15	0.69594	0.94883	2.0308	830.31	-0.048367	181.84	0.15242	0.011885	29.690	0.033682	397.49	436.00	2.0302	0.69329	1.0681	223.28	20.684	11.940	0.013167
236.76	1.1448	1102.1	0.00090739	119.18	120.22	0.69623	0.94879	2.0310	830.07	-0.048151	181.74	0.15237	0.011877	29.726	0.033641	397.50	436.01	2.0300	0.69342	1.0685	223.28	20.676	11.942	0.013171
236.79	1.1461	1101.9	0.00090750	119.25	120.29	0.69651	0.94875	2.0312	829.82	-0.047935	181.64	0.15233	0.011870	29.761	0.033601	397.50	436.01	2.0299	0.69354	1.0688	223.27	20.668	11.944	0.013175
236.83	1.1475	1101.8	0.00090761	119.31	120.35	0.69680	0.94872	2.0314	829.57	-0.047719	181.54	0.15229	0.011862	29.797	0.033560	397.51	436.02	2.0297	0.69366	1.0692	223.27	20.661	11.946	0.013179
236.86	1.1489	1101.7	0.00090773	119.38	120.42	0.69709	0.94868	2.0316	829.33	-0.047503	181.44	0.15225	0.011855	29.833	0.033520	397.51	436.03	2.0295	0.69378	1.0695	223.27	20.653	11.948	0.013183
236.90	1.1503	1101.5	0.00090784	119.45	120.49	0.69737	0.94864	2.0318	829.08	-0.047287	181.34	0.15221	0.011847	29.868	0.033480	397.52	436.03	2.0293	0.69390	1.0699	223.26	20.646	11.950	0.013187
236.93	1.1517	1101.4	0.00090795	119.52	120.56	0.69766	0.94861	2.0320	828.83	-0.047071	181.24	0.15217	0.011840	29.904	0.033440	397.52	436.04	2.0292	0.69403	1.0702	223.26	20.638	11.951	0.013191
236.96	1.1531	1101.2	0.00090806	119.58	120.63	0.69794	0.94857	2.0322	828.59	-0.046855	181.14	0.15213	0.011832	29.940	0.033400	397.53	436.04	2.0290	0.69415	1.0706	223.26	20.630	11.953	0.013195
237.00	1.1544	1101.1	0.00090818	119.65	120.70	0.69823	0.94853	2.0324	828.34	-0.046639	181.05	0.15209	0.011825	29.975	0.033361	397.53	436.05	2.0288	0.69427	1.0709	223.26	20.623	11.955	0.013199
237.03	1.1558	1101.0	0.00090829	119.72	120.77	0.69851	0.94850	2.0326	828.09	-0.046423	180.95	0.15205	0.011817	30.011	0.033321	397.54	436.05	2.0287	0.69439	1.0712	223.25	20.615	11.957	0.013203
237.06	1.1572	1100.8	0.00090840	119.78	120.84	0.69879	0.94846	2.0328	827.85	-0.046206	180.85	0.15201	0.011810	30.047	0.033281	397.55	436.06	2.0285	0.69451	1.0716	223.25	20.608	11.959	0.013207
237.10	1.1586	1100.7	0.00090851	119.85	120.90	0.69908	0.94842	2.0330	827.60	-0.045990	180.75	0.15197	0.011803	30.083	0.033242	397.55	436.06	2.0283	0.69464	1.0719	223.25	20.600	11.961	0.013211
237.13	1.1600	1100.6	0.00090862	119.92	120.97	0.69936	0.94839	2.0332	827.36	-0.045774	180.65	0.15193	0.011795	30.118	0.033202	397.56	436.07	2.0281	0.69476	1.0723	223.25	20.593	11.963	0.013215
237.17	1.1614	1100.4	0.00090874	119.99	121.04	0.69965	0.94835	2.0334	827.11	-0.045557	180.55	0.15189	0.011788	30.154	0.033163	397.56	436.08	2.0280	0.69488	1.0726	223.24	20.585	11.965	0.013219
237.20	1.1627	1100.3	0.00090885	120.05	121.11	0.69993	0.94831	2.0336	826.87	-0.045341	180.46	0.15185	0.011780	30.190	0.033124	397.57	436.08	2.0278	0.69500	1.0730	223.24	20.578	11.966	0.013223
237.23	1.1641	1100.2	0.00090896	120.12	121.18	0.70021	0.94828	2.0338	826.62	-0.045125	180.36	0.15181	0.011773	30.225	0.033085	397.57	436.09	2.0276	0.69512	1.0733	223.24	20.570	11.968	0.013227
237.27	1.1655	1100.0	0.00090907	120.19	121.25	0.70049	0.94824	2.0340	826.38	-0.044908	180.26	0.15176	0.011765	30.261	0.033046	397.58	436.09	2.0275	0.69525	1.0737	223.23	20.563	11.970	0.013231
237.30	1.1669	1099.9	0.00090918	120.25	121.31	0.70078	0.94820	2.0342	826.14	-0.044692	180.16	0.15172	0.011758	30.297	0.033007	397.58	436.10	2.0273	0.69537	1.0740	223.23	20.556	11.972	0.013235
237.33	1.1683	1099.8	0.00090929	120.32	121.38	0.70106	0.94817	2.0344	825.89	-0.044475	180.07	0.15168	0.011751	30.333	0.032968	397.59	436.10	2.0271	0.69549	1.0744	223.23	20.548	11.974	0.013239
237.37	1.1697	1099.6	0.00090941	120.39	121.45	0.70134	0.94813	2.0346	825.65	-0.044259	179.97	0.15164	0.011743	30.368	0.032929	397.59	436.11	2.0270	0.69561	1.0747	223.23	20.541	11.976	0.013243
237.40	1.1710	1099.5	0.00090952	120.45	121.52	0.70162	0.94810	2.0348	825.40	-0.044042	179.87	0.15160	0.011736	30.404	0.032890	397.60	436.11	2.0268	0.69573	1.0751	223.22	20.533	11.978	0.013247
237.43	1.1724	1099.3	0.00090963	120.52	121.59	0.70190	0.94806	2.0350	825.16	-0.043825	179.78	0.15156	0.011729	30.440	0.032852	397.60	436.12	2.0266	0.69585	1.0754	223.22	20.526	11.979	0.013251
237.47	1.1738	1099.2	0.00090974	120.59	121.66	0.70218	0.94802	2.0352	824.92	-0.043609	179.68	0.15152	0.011721	30.476	0.032813	397.61	436.12	2.0264	0.69597	1.0758	223.22	20.519	11.981	0.013255
237.50	1.1752	1099.1	0.00090985	120.65	121.72	0.70246	0.94799	2.0353	824.67	-0.043392	179.58	0.15148	0.011714	30.511	0.032775	397.61	436.13	2.0263	0.69609	1.0761	223.21	20.511	11.983	0.013259
237.53	1.1766	1098.9	0.00090996	120.72	121.79	0.70274	0.94795	2.0355	824.43	-0.043175	179.49	0.15144	0.011707	30.547	0.032736	397.62	436.13	2.0261	0.69622	1.0765	223.21	20.504	11.985	0.013263
237.57	1.1779	1098.8	0.00091008	120.79	121.86	0.70302	0.94791	2.0357	824.19	-0.042958	179.39	0.15140	0.011699	30.583	0.032698	397.62	436.14	2.0259	0.69634	1.0768	223.21	20.496	11.987	0.013267
237.60	1.1793	1098.7	0.00091019	120.85	121.93	0.70330	0.94788	2.0359	823.95	-0.042741	179.29	0.15136	0.011692	30.619	0.032660	397.63	436.14	2.0258	0.69646	1.0772	223.20	20.489	11.989	0.013271
237.63	1.1807	1098.5	0.00091030	120.92	121.99	0.70358	0.94784	2.0361	823.70	-0.042525	179.20	0.15132	0.011685	30.654	0.032622	397.63	436.15	2.0256	0.69658	1.0775	223.20	20.482	11.991	0.013275
237.67	1.1821	1098.4	0.00091041	120.99	122.06	0.70386	0.94781	2.0363	823.46	-0.042308	179.10	0.15128	0.011677	30.690	0.032584	397.64	436.16	2.0254	0.69670	1.0779	223.20	20.474	11.992	0.013279
237.70	1.1835	1098.3	0.00091052	121.05	122.13	0.70414	0.94777	2.0365	823.22	-0.042091	179.01	0.15124	0.011670	30.726	0.032546	397.64	436.16	2.0253	0.69682	1.0782	223.20	20.467	11.994	0.013283
237.73	1.1849	1098.1	0.00091063	121.12	122.20	0.70442	0.94774	2.0367	822.98	-0.041874	178.91	0.15120	0.011663	30.762	0.032508	397.65	436.17	2.0251	0.69694	1.0786	223.19	20.460	11.996	0.013287
237.77	1.1862	1098.0	0.00091074	121.18	122.26	0.70470	0.94770	2.0369	822.74	-0.041657	178.81	0.15116	0.011655	30.797	0.032470	397.65	436.17	2.0249	0.69706	1.0789	223.19	20.453	11.998	0.013291
237.80	1.1876	1097.9	0.00091085	121.25	122.33	0.70498	0.94767	2.0371	822.50	-0.041440	178.72	0.15112	0.011648	30.833	0.032433	397.66	436.18	2.0248	0.69718	1.0793	223.19	20.445	12.000	0.013295
237.83	1.1890	1097.7	0.00091097	121.32	122.40	0.70525	0.94763	2.0373	822.25	-0.041223	178.62	0.15108	0.011641	30.869	0.032395	397.66	436.18	2.0246	0.69730	1.0796	223.18	20.438	12.002	0.013299
237.86	1.1904	1097.6	0.00091108	121.38	122.47	0.70553	0.94759	2.0375	822.01	-0.041005	178.53	0.15104	0.011634	30.905	0.032357	397.67	436.19	2.0244	0.69742	1.0800	223.18	20.431	12.004	0.013303
237.90	1.1918	1097.5	0.00091119	121.45	122.53	0.70581	0.94756	2.0377	821.77	-0.040788	178.43	0.15100	0.011626	30.941	0.032320	397.67	436.19	2.0243	0.69755	1.0803	223.18	20.423	12.005	0.013307
237.93	1.1932	1097.3	0.00091130	121.51	122.60	0.70609	0.94752	2.0379	821.53	-0.040571	178.34	0.15097	0.011619	30.976	0.032283	397.68	436.20	2.0241	0.69767	1.0807	223.17	20.416	12.007	0.013311
237.96	1.1945	1097.2	0.00091141	121.58	122.67	0.70636	0.94749	2.0381	821.29	-0.040354	178.24	0.15093	0.011612	31.012	0.032245	397.68	436.20	2.0239	0.69779	1.0810	223.17	20.409	12.009	0.013315
238.00	1.1959	1097.1	0.00091152	121.64	122.74	0.70664	0.94745	2.0383	821.05	-0.040137	178.15	0.15089	0.011605	31.048	0.032208	397.69	436.21	2.0238	0.69791	1.0814	223.17	20.402	12.011	0.013319
238.03	1.1973	1096.9	0.00091163	121.71	122.80	0.70692	0.94742	2.0385	820.81	-0.039919	178.06	0.15085	0.011597	31.084	0.032171	397.69	436.21	2.0236	0.69803	1.0817	223.17	20.395	12.013	0.013323
238.06	1.1987	1096.8	0.00091174	121.78	122.87	0.70719	0.94738	2.0387	820.57	-0.039702	177.96	0.15081	0.011590	31.120	0.032134	397.70	436.22	2.0234	0.69815	1.0821	223.16	20.387	12.015	0.013327
238.09	1.2001	1096.7	0.00091185	121.84	122.94	0.70747	0.94735	2.0389	820.33	-0.039484	177.87	0.15077	0.011583	31.155	0.032097	397.70	436.22	2.0233	0.69827	1.0824	223.16	20.380	12.016	0.013331
238.13	1.2015	1096.5	0.00091196	121.91	123.00	0.70775	0.94731	2.0391	820.09	-0.039267	177.77	0.15073	0.011576	31.191	0.032060	397.71	436.23	2.0231	0.69839	1.0828	223.16	20.373	12.018	0.013335
238.16	1.2028	1096.4	0.00091207	121.97	123.07	0.70802	0.94728	2.0393	819.85	-0.039049	177.68	0.15069	0.011569	31.227	0.032024	397.71	436.23	2.0229	0.69851	1.0831	223.15	20.366	12.020	0.013339
238.19	1.2042	1096.3	0.00091219	122.04	123.14	0.70830	0.94724	2.0395	819.62	-0.038832	177.59	0.15065	0.011561	31.263	0.031987	397.72	436.24	2.0228	0.69863	1.0834	223.15	20.359	12.022	0.013343
238.23	1.2056	1096.1	0.00091230	122.10	123.20	0.70857	0.94721	2.0397	819.38	-0.038614	177.49	0.15061	0.011554	31.299	0.031950	397.72	436.24	2.0226	0.69875	1.0838	223.15	20.351	12.024	0.013347
238.26	1.2070	1096.0	0.00091241	122.17	123.27	0.70885	0.94717	2.0399	819.14	-0.038397	177.40	0.15057	0.011547	31.334	0.031914	397.73	436.25	2.0224	0.69887	1.0841	223.14	20.344	12.026	0.013351
238.29	1.2084	1095.9	0.00091252	122.23	123.34	0.70912	0.94714	2.0401	818.90	-0.038179	177.30	0.15053	0.011540	31.370	0.031877	397.73	436.25	2.0223	0.69899	1.0845	223.14	20.337	12.027	0.013355
238.32	1.2098	1095.7	0.00091263	122.30	123.40	0.70939	0.94710	2.0403	818.66	-0.037961	177.21	0.15049	0.011533	31.406	0.031841	397.74	436.26	2.0221	0.69911	1.0848	223.14	20.330	12.029	0.013359
238.36	1.2111	1095.6	0.00091274	122.36	123.47	0.70967	0.94707	2.0405	818.42	-0.037744	177.12	0.15045	0.011526	31.442	0.031805	397.74	436.26	2.0220	0.69923	1.0852	223.13	20.323	12.031	0.013363
238.39	1.2125	1095.5	0.00091285	122.43	123.54	0.70994	0.94704	2.0407	818.19	-0.037526	177.03	0.15041	0.011518	31.478	0.031768	397.75	436.27	2.0218	0.69935	1.0855	223.13	20.316	12.033	0.013367
238.42	1.2139	1095.3	0.00091296	122.49	123.60	0.71022	0.94700	2.0409	817.95	-0.037308	176.93	0.15037	0.011511	31.514	0.031732	397.75	436.27	2.0216	0.69947	1.0859	223.13	20.309	12.035	0.013371
238.45	1.2153	1095.2	0.00091307	122.56	123.67	0.71049	0.94697	2.0411	817.71	-0.037090	176.84	0.15034	0.011504	31.549	0.031696	397.75	436.28	2.0215	0.69959	1.0862	223.12	20.302	12.037	0.013375
238.49	1.2167	1095.1	0.00091318	122.62	123.74	0.71076	0.94693	2.0413	817.47	-0.036872	176.75	0.15030	0.011497	31.585	0.031660	397.76	436.28	2.0213	0.69971	1.0866	223.12	20.295	12.038	0.013379
238.52	1.2181	1094.9	0.00091329	122.69	123.80	0.71103	0.94690	2.0415	817.24	-0.036654	176.66	0.15026	0.011490	31.621	0.031624	397.76	436.28	2.0211	0.69983	1.0869	223.12	20.288	12.040	0.013383
238.55	1.2194	1094.8	0.00091340	122.75	123.87	0.71131	0.94686	2.0417	817.00	-0.036436	176.56	0.15022	0.011483	31.657	0.031589	397.77	436.29	2.0210	0.69995	1.0873	223.11	20.281	12.042	0.013387
238.58	1.2208	1094.7	0.00091351	122.82	123.93	0.71158	0.94683	2.0419	816.76	-0.036218	176.47	0.15018	0.011476	31.693	0.031553	397.77	436.29	2.0208	0.70007	1.0876	223.11	20.274	12.044	0.013391
238.62	1.2222	1094.5	0.00091362	122.88	124.00	0.71185	0.94679	2.0421	816.53	-0.036000	176.38	0.15014	0.011469	31.729	0.031517	397.78	436.30	2.0206	0.70018	1.0880	223.11	20.266	12.046	0.013395
238.65	1.2236	1094.4	0.00091373	122.95	124.07	0.71212	0.94676	2.0423	816.29	-0.035782	176.29	0.15010	0.011461	31.765	0.031482	397.78	436.30	2.0205	0.70030	1.0883	223.10	20.259	12.048	0.013399
238.68	1.2250	1094.3	0.00091384	123.01	124.13	0.71239	0.94673	2.0425	816.05	-0.035564	176.20	0.15006	0.011454	31.800	0.031446	397.79	436.31	2.0203	0.70042	1.0887	223.10	20.252	12.049	0.013403
238.71	1.2263	1094.2	0.00091395	123.08	124.20	0.71267	0.94669	2.0427	815.82	-0.035346	176.10	0.15002	0.011447	31.836	0.031411	397.79	436.31	2.0202	0.70054	1.0890	223.10	20.245	12.051	0.013407
238.74	1.2277	1094.0	0.00091406	123.14	124.26	0.71294	0.94666	2.0429	815.58	-0.035128	176.01	0.14999	0.011440	31.872	0.031375	397.80	436.32	2.0200	0.70066	1.0894	223.09	20.238	12.053	0.013411
238.78	1.2291	1093.9	0.00091417	123.21	124.33	0.71321	0.94662	2.0431	815.35	-0.034910	175.92	0.14995	0.011433	31.908	0.031340	397.80	436.32	2.0198	0.70078	1.0897	223.09	20.231	12.055	0.013415
238.81	1.2305	1093.8	0.00091428	123.27	124.40	0.71348	0.94659	2.0433	815.11	-0.034691	175.83	0.14991	0.011426	31.944	0.031305	397.81	436.33	2.0197	0.70090	1.0901	223.09	20.225	12.057	0.013419
238.84	1.2319	1093.6	0.00091439	123.34	124.46	0.71375	0.94656	2.0435	814.87	-0.034473	175.74	0.14987	0.011419	31.980	0.031270	397.81	436.33	2.0195	0.70102	1.0904	223.08	20.218	12.058	0.013423
238.87	1.2333	1093.5	0.00091450	123.40	124.53	0.71402	0.94652	2.0437	814.64	-0.034255	175.65	0.14983	0.011412	32.016	0.031235	397.82	436.34	2.0193	0.70114	1.0908	223.08	20.211	12.060	0.013427
238.91	1.2346	1093.4	0.00091461	123.46	124.59	0.71429	0.94649	2.0439	814.40	-0.034036	175.56	0.14979	0.011405	32.052	0.031200	397.82	436.34	2.0192	0.70126	1.0911	223.08	20.204	12.062	0.013431
238.94	1.2360	1093.2	0.00091472	123.53	124.66	0.71456	0.94646	2.0441	814.17	-0.033818	175.47	0.14975	0.011398	32.087	0.031165	397.82	436.34	2.0190	0.70138	1.0915	223.07	20.197	12.064	0.013435
238.97	1.2374	1093.1	0.00091483	123.59	124.73	0.71483	0.94642	2.0443	813.93	-0.033599	175.37	0.14971	0.011391	32.123	0.031130	397.83	436.35	2.0189	0.70150	1.0918	223.07	20.190	12.066	0.013439
239.00	1.2388	1093.0	0.00091494	123.66	124.79	0.71510	0.94639	2.0445	813.70	-0.033381	175.28	0.14968	0.011384	32.159	0.031095	397.83	436.35	2.0187	0.70161	1.0922	223.07	20.183	12.068	0.013443
239.03	1.2402	1092.8	0.00091505	123.72	124.86	0.71536	0.94636	2.0448	813.47	-0.033162	175.19	0.14964	0.011377	32.195	0.031061	397.84	436.36	2.0185	0.70173	1.0925	223.06	20.176	12.069	0.013447
239.07	1.2416	1092.7	0.00091516	123.79	124.92	0.71563	0.94632	2.0450	813.23	-0.032943	175.10	0.14960	0.011370	32.231	0.031026	397.84	436.36	2.0184	0.70185	1.0929	223.06	20.169	12.071	0.013451
239.10	1.2429	1092.6	0.00091527	123.85	124.99	0.71590	0.94629	2.0452	813.00	-0.032725	175.01	0.14956	0.011363	32.267	0.030991	397.85	436.37	2.0182	0.70197	1.0932	223.06	20.162	12.073	0.013455
239.13	1.2443	1092.4	0.00091538	123.91	125.05	0.71617	0.94625	2.0454	812.76	-0.032506	174.92	0.14952	0.011356	32.303	0.030957	397.85	436.37	2.0181	0.70209	1.0936	223.05	20.155	12.075	0.013459
239.16	1.2457	1092.3	0.00091549	123.98	125.12	0.71644	0.94622	2.0456	812.53	-0.032287	174.83	0.14948	0.011349	32.339	0.030923	397.86	436.38	2.0179	0.70221	1.0939	223.05	20.148	12.077	0.013463
239.19	1.2471	1092.2	0.00091560	124.04	125.18	0.71671	0.94619	2.0458	812.30	-0.032068	174.74	0.14945	0.011342	32.375	0.030888	397.86	436.38	2.0177	0.70233	1.0943	223.05	20.142	12.078	0.013467
239.22	1.2485	1092.1	0.00091571	124.11	125.25	0.71697	0.94616	2.0460	812.06	-0.031850	174.65	0.14941	0.011335	32.411	0.030854	397.86	436.38	2.0176	0.70244	1.0946	223.04	20.135	12.080	0.013471
239.26	1.2499	1091.9	0.00091581	124.17	125.31	0.71724	0.94612	2.0462	811.83	-0.031631	174.56	0.14937	0.011328	32.447	0.030820	397.87	436.39	2.0174	0.70256	1.0950	223.04	20.128	12.082	0.013475
239.29	1.2512	1091.8	0.00091592	124.23	125.38	0.71751	0.94609	2.0464	811.60	-0.031412	174.48	0.14933	0.011321	32.482	0.030786	397.87	436.39	2.0173	0.70268	1.0953	223.04	20.121	12.084	0.013479
239.32	1.2526	1091.7	0.00091603	124.30	125.44	0.71777	0.94606	2.0466	811.37	-0.031193	174.39	0.14929	0.011314	32.518	0.030752	397.88	436.40	2.0171	0.70280	1.0957	223.03	20.114	12.086	0.013483
239.35	1.2540	1091.5	0.00091614	124.36	125.51	0.71804	0.94602	2.0468	811.13	-0.030974	174.30	0.14926	0.011307	32.554	0.030718	397.88	436.40	2.0169	0.70292	1.0961	223.03	20.107	12.087	0.013487
239.38	1.2554	1091.4	0.00091625	124.42	125.57	0.71831	0.94599	2.0470	810.90	-0.030755	174.21	0.14922	0.011300	32.590	0.030684	397.89	436.41	2.0168	0.70304	1.0964	223.03	20.101	12.089	0.013491
239.42	1.2568	1091.3	0.00091636	124.49	125.64	0.71857	0.94596	2.0472	810.67	-0.030536	174.12	0.14918	0.011293	32.626	0.030650	397.89	436.41	2.0166	0.70315	1.0968	223.02	20.094	12.091	0.013495
239.45	1.2582	1091.1	0.00091647	124.55	125.70	0.71884	0.94592	2.0474	810.44	-0.030317	174.03	0.14914	0.011286	32.662	0.030616	397.89	436.41	2.0165	0.70327	1.0971	223.02	20.087	12.093	0.013499
239.48	1.2595	1091.0	0.00091658	124.61	125.77	0.71910	0.94589	2.0476	810.20	-0.030097	173.94	0.14910	0.011279	32.698	0.030583	397.90	436.42	2.0163	0.70339	1.0975	223.02	20.080	12.095	0.013503
239.51	1.2609	1090.9	0.00091669	124.68	125.83	0.71937	0.94586	2.0478	809.97	-0.029878	173.85	0.14906	0.011272	32.734	0.030549	397.90	436.42	2.0161	0.70351	1.0978	223.01	20.074	12.096	0.013507
239.54	1.2623	1090.8	0.00091680	124.74	125.90	0.71963	0.94583	2.0480	809.74	-0.029659	173.76	0.14903	0.011266	32.770	0.030516	397.91	436.43	2.0160	0.70363	1.0982	223.01	20.067	12.098	0.013511
239.57	1.2637	1090.6	0.00091691	124.80	125.96	0.71990	0.94579	2.0482	809.51	-0.029440	173.68	0.14899	0.011259	32.806	0.030482	397.91	436.43	2.0158	0.70375	1.0985	223.01	20.060	12.100	0.013515
239.61	1.2651	1090.5	0.00091702	124.87	126.03	0.72016	0.94576	2.0484	809.28	-0.029220	173.59	0.14895	0.011252	32.842	0.030449	397.92	436.44	2.0157	0.70386	1.0989	223.00	20.053	12.102	0.013519
239.64	1.2665	1090.4	0.00091712	124.93	126.09	0.72043	0.94573	2.0486	809.05	-0.029001	173.50	0.14891	0.011245	32.878	0.030416	397.92	436.44	2.0155	0.70398	1.0992	223.00	20.047	12.104	0.013522
239.67	1.2678	1090.2	0.00091723	124.99	126.16	0.72069	0.94570	2.0488	808.82	-0.028781	173.41	0.14888	0.011238	32.914	0.030382	397.92	436.44	2.0153	0.70410	1.0996	223.00	20.040	12.105	0.013526
239.70	1.2692	1090.1	0.00091734	125.06	126.22	0.72096	0.94566	2.0490	808.59	-0.028562	173.32	0.14884	0.011231	32.950	0.030349	397.93	436.45	2.0152	0.70422	1.0999	222.99	20.033	12.107	0.013530
239.73	1.2706	1090.0	0.00091745	125.12	126.29	0.72122	0.94563	2.0492	808.36	-0.028342	173.24	0.14880	0.011224	32.986	0.030316	397.93	436.45	2.0150	0.70433	1.1003	222.99	20.026	12.109	0.013534
239.76	1.2720	1089.8	0.00091756	125.18	126.35	0.72148	0.94560	2.0494	808.13	-0.028123	173.15	0.14876	0.011217	33.022	0.030283	397.94	436.46	2.0149	0.70445	1.1006	222.99	20.020	12.111	0.013538
239.79	1.2734	1089.7	0.00091767	125.25	126.41	0.72175	0.94557	2.0496	807.89	-0.027903	173.06	0.14872	0.011210	33.058	0.030250	397.94	436.46	2.0147	0.70457	1.1010	222.98	20.013	12.113	0.013542
239.83	1.2747	1089.6	0.00091778	125.31	126.48	0.72201	0.94553	2.0498	807.67	-0.027684	172.97	0.14869	0.011204	33.094	0.030217	397.95	436.46	2.0146	0.70469	1.1013	222.98	20.006	12.114	0.013546
239.86	1.2761	1089.5	0.00091789	125.37	126.54	0.72227	0.94550	2.0500	807.44	-0.027464	172.89	0.14865	0.011197	33.130	0.030184	397.95	436.47	2.0144	0.70480	1.1017	222.97	20.000	12.116	0.013550
239.89	1.2775	1089.3	0.00091799	125.43	126.61	0.72254	0.94547	2.0502	807.21	-0.027244	172.80	0.14861	0.011190	33.166	0.030152	397.95	436.47	2.0142	0.70492	1.1020	222.97	19.993	12.118	0.013554
239.92	1.2789	1089.2	0.00091810	125.50	126.67	0.72280	0.94544	2.0505	806.98	-0.027024	172.71	0.14857	0.011183	33.202	0.030119	397.96	436.48	2.0141	0.70504	1.1024	222.97	19.986	12.120	0.013558
239.95	1.2803	1089.1	0.00091821	125.56	126.74	0.72306	0.94540	2.0507	806.75	-0.026804	172.63	0.14854	0.011176	33.238	0.030086	397.96	436.48	2.0139	0.70516	1.1027	222.96	19.980	12.121	0.013562
239.98	1.2817	1088.9	0.00091832	125.62	126.80	0.72332	0.94537	2.0509	806.52	-0.026585	172.54	0.14850	0.011169	33.274	0.030054	397.97	436.48	2.0138	0.70527	1.1031	222.96	19.973	12.123	0.013566
240.01	1.2830	1088.8	0.00091843	125.69	126.86	0.72358	0.94534	2.0511	806.29	-0.026365	172.45	0.14846	0.011163	33.310	0.030021	397.97	436.49	2.0136	0.70539	1.1034	222.96	19.967	12.125	0.013570
240.04	1.2844	1088.7	0.00091854	125.75	126.93	0.72385	0.94531	2.0513	806.06	-0.026145	172.37	0.14842	0.011156	33.346	0.029989	397.97	436.49	2.0135	0.70551	1.1038	222.95	19.960	12.127	0.013574
240.08	1.2858	1088.6	0.00091864	125.81	126.99	0.72411	0.94528	2.0515	805.83	-0.025925	172.28	0.14839	0.011149	33.382	0.029956	397.98	436.50	2.0133	0.70563	1.1041	222.95	19.953	12.129	0.013578
240.11	1.2872	1088.4	0.00091875	125.87	127.06	0.72437	0.94525	2.0517	805.60	-0.025705	172.19	0.14835	0.011142	33.418	0.029924	397.98	436.50	2.0131	0.70574	1.1045	222.95	19.947	12.130	0.013582
240.14	1.2886	1088.3	0.00091886	125.94	127.12	0.72463	0.94521	2.0519	805.37	-0.025484	172.11	0.14831	0.011135	33.454	0.029892	397.99	436.50	2.0130	0.70586	1.1048	222.94	19.940	12.132	0.013586
240.17	1.2900	1088.2	0.00091897	126.00	127.18	0.72489	0.94518	2.0521	805.15	-0.025264	172.02	0.14827	0.011129	33.490	0.029860	397.99	436.51	2.0128	0.70598	1.1052	222.94	19.934	12.134	0.013590
240.20	1.2913	1088.0	0.00091908	126.06	127.25	0.72515	0.94515	2.0523	804.92	-0.025044	171.93	0.14824	0.011122	33.526	0.029828	397.99	436.51	2.0127	0.70609	1.1055	222.93	19.927	12.136	0.013594
240.23	1.2927	1087.9	0.00091919	126.12	127.31	0.72541	0.94512	2.0525	804.69	-0.024824	171.85	0.14820	0.011115	33.562	0.029796	398.00	436.52	2.0125	0.70621	1.1059	222.93	19.920	12.137	0.013598
240.26	1.2941	1087.8	0.00091929	126.19	127.38	0.72567	0.94509	2.0527	804.46	-0.024604	171.76	0.14816	0.011108	33.598	0.029764	398.00	436.52	2.0124	0.70633	1.1062	222.93	19.914	12.139	0.013602
240.29	1.2955	1087.7	0.00091940	126.25	127.44	0.72593	0.94506	2.0529	804.23	-0.024383	171.68	0.14813	0.011102	33.634	0.029732	398.01	436.52	2.0122	0.70645	1.1066	222.92	19.907	12.141	0.013606
240.32	1.2969	1087.5	0.00091951	126.31	127.50	0.72619	0.94502	2.0531	804.01	-0.024163	171.59	0.14809	0.011095	33.670	0.029700	398.01	436.53	2.0121	0.70656	1.1070	222.92	19.901	12.143	0.013609
240.35	1.2983	1087.4	0.00091962	126.37	127.57	0.72645	0.94499	2.0533	803.78	-0.023942	171.51	0.14805	0.011088	33.706	0.029668	398.01	436.53	2.0119	0.70668	1.1073	222.92	19.894	12.145	0.013613
240.39	1.2996	1087.3	0.00091973	126.43	127.63	0.72671	0.94496	2.0535	803.55	-0.023722	171.42	0.14801	0.011081	33.742	0.029637	398.02	436.54	2.0117	0.70680	1.1077	222.91	19.888	12.146	0.013617
240.42	1.3010	1087.2	0.00091983	126.50	127.69	0.72697	0.94493	2.0537	803.33	-0.023501	171.34	0.14798	0.011075	33.778	0.029605	398.02	436.54	2.0116	0.70691	1.1080	222.91	19.881	12.148	0.013621
240.45	1.3024	1087.0	0.00091994	126.56	127.76	0.72722	0.94490	2.0539	803.10	-0.023281	171.25	0.14794	0.011068	33.814	0.029573	398.03	436.54	2.0114	0.70703	1.1084	222.90	19.875	12.150	0.013625
240.48	1.3038	1086.9	0.00092005	126.62	127.82	0.72748	0.94487	2.0542	802.87	-0.023060	171.17	0.14790	0.011061	33.850	0.029542	398.03	436.55	2.0113	0.70715	1.1087	222.90	19.868	12.152	0.013629
240.51	1.3052	1086.8	0.00092016	126.68	127.88	0.72774	0.94484	2.0544	802.65	-0.022840	171.08	0.14787	0.011054	33.886	0.029510	398.03	436.55	2.0111	0.70726	1.1091	222.90	19.862	12.153	0.013633
240.54	1.3066	1086.6	0.00092027	126.74	127.95	0.72800	0.94480	2.0546	802.42	-0.022619	171.00	0.14783	0.011048	33.922	0.029479	398.04	436.55	2.0110	0.70738	1.1094	222.89	19.855	12.155	0.013637
240.57	1.3079	1086.5	0.00092037	126.81	128.01	0.72826	0.94477	2.0548	802.19	-0.022398	170.91	0.14779	0.011041	33.958	0.029448	398.04	436.56	2.0108	0.70750	1.1098	222.89	19.849	12.157	0.013641
240.60	1.3093	1086.4	0.00092048	126.87	128.07	0.72851	0.94474	2.0550	801.97	-0.022177	170.83	0.14776	0.011034	33.995	0.029416	398.05	436.56	2.0107	0.70761	1.1101	222.89	19.842	12.159	0.013645
240.63	1.3107	1086.3	0.00092059	126.93	128.14	0.72877	0.94471	2.0552	801.74	-0.021957	170.74	0.14772	0.011028	34.031	0.029385	398.05	436.56	2.0105	0.70773	1.1105	222.88	19.836	12.160	0.013649
240.66	1.3121	1086.1	0.00092070	126.99	128.20	0.72903	0.94468	2.0554	801.52	-0.021736	170.66	0.14768	0.011021	34.067	0.029354	398.05	436.57	2.0104	0.70785	1.1108	222.88	19.829	12.162	0.013653
240.69	1.3135	1086.0	0.00092081	127.05	128.26	0.72929	0.94465	2.0556	801.29	-0.021515	170.57	0.14765	0.011014	34.103	0.029323	398.06	436.57	2.0102	0.70796	1.1112	222.87	19.823	12.164	0.013657
240.72	1.3149	1085.9	0.00092091	127.12	128.33	0.72954	0.94462	2.0558	801.07	-0.021294	170.49	0.14761	0.011008	34.139	0.029292	398.06	436.58	2.0101	0.70808	1.1115	222.87	19.817	12.166	0.013661
240.75	1.3162	1085.8	0.00092102	127.18	128.39	0.72980	0.94459	2.0560	800.84	-0.021073	170.41	0.14757	0.011001	34.175	0.029261	398.06	436.58	2.0099	0.70819	1.1119	222.87	19.810	12.168	0.013665
240.78	1.3176	1085.6	0.00092113	127.24	128.45	0.73006	0.94456	2.0562	800.62	-0.020852	170.32	0.14753	0.010994	34.211	0.029230	398.07	436.58	2.0097	0.70831	1.1122	222.86	19.804	12.169	0.013669
240.82	1.3190	1085.5	0.00092124	127.30	128.51	0.73031	0.94453	2.0564	800.39	-0.020631	170.24	0.14750	0.010988	34.247	0.029199	398.07	436.59	2.0096	0.70843	1.1126	222.86	19.797	12.171	0.013672
240.85	1.3204	1085.4	0.00092134	127.36	128.58	0.73057	0.94450	2.0566	800.17	-0.020409	170.16	0.14746	0.010981	34.283	0.029169	398.08	436.59	2.0094	0.70854	1.1130	222.86	19.791	12.173	0.013676
240.88	1.3218	1085.2	0.00092145	127.42	128.64	0.73082	0.94446	2.0568	799.94	-0.020188	170.07	0.14743	0.010974	34.319	0.029138	398.08	436.59	2.0093	0.70866	1.1133	222.85	19.785	12.175	0.013680
240.91	1.3231	1085.1	0.00092156	127.48	128.70	0.73108	0.94443	2.0571	799.72	-0.019967	169.99	0.14739	0.010968	34.355	0.029107	398.08	436.60	2.0091	0.70878	1.1137	222.85	19.778	12.176	0.013684
240.94	1.3245	1085.0	0.00092167	127.55	128.77	0.73133	0.94440	2.0573	799.49	-0.019746	169.91	0.14735	0.010961	34.392	0.029077	398.09	436.60	2.0090	0.70889	1.1140	222.84	19.772	12.178	0.013688
240.97	1.3259	1084.9	0.00092177	127.61	128.83	0.73159	0.94437	2.0575	799.27	-0.019524	169.82	0.14732	0.010954	34.428	0.029046	398.09	436.60	2.0088	0.70901	1.1144	222.84	19.765	12.180	0.013692
241.00	1.3273	1084.7	0.00092188	127.67	128.89	0.73184	0.94434	2.0577	799.05	-0.019303	169.74	0.14728	0.010948	34.464	0.029016	398.09	436.61	2.0087	0.70912	1.1147	222.84	19.759	12.182	0.013696
241.03	1.3287	1084.6	0.00092199	127.73	128.95	0.73210	0.94431	2.0579	798.82	-0.019081	169.66	0.14724	0.010941	34.500	0.028986	398.10	436.61	2.0085	0.70924	1.1151	222.83	19.753	12.183	0.013700
241.06	1.3301	1084.5	0.00092210	127.79	129.02	0.73235	0.94428	2.0581	798.60	-0.018860	169.57	0.14721	0.010935	34.536	0.028955	398.10	436.61	2.0084	0.70936	1.1154	222.83	19.746	12.185	0.013704
241.09	1.3314	1084.4	0.00092220	127.85	129.08	0.73261	0.94425	2.0583	798.37	-0.018638	169.49	0.14717	0.010928	34.572	0.028925	398.11	436.62	2.0082	0.70947	1.1158	222.82	19.740	12.187	0.013708
241.12	1.3328	1084.2	0.00092231	127.91	129.14	0.73286	0.94422	2.0585	798.15	-0.018417	169.41	0.14713	0.010921	34.608	0.028895	398.11	436.62	2.0081	0.70959	1.1161	222.82	19.734	12.189	0.013712
241.15	1.3342	1084.1	0.00092242	127.97	129.20	0.73312	0.94419	2.0587	797.93	-0.018195	169.32	0.14710	0.010915	34.645	0.028865	398.11	436.62	2.0079	0.70970	1.1165	222.82	19.727	12.190	0.013716
241.18	1.3356	1084.0	0.00092252	128.03	129.27	0.73337	0.94416	2.0589	797.71	-0.017974	169.24	0.14706	0.010908	34.681	0.028835	398.12	436.63	2.0078	0.70982	1.1168	222.81	19.721	12.192	0.013720
241.21	1.3370	1083.9	0.00092263	128.10	129.33	0.73362	0.94413	2.0591	797.48	-0.017752	169.16	0.14702	0.010902	34.717	0.028805	398.12	436.63	2.0076	0.70993	1.1172	222.81	19.715	12.194	0.013724
241.24	1.3384	1083.7	0.00092274	128.16	129.39	0.73388	0.94410	2.0593	797.26	-0.017530	169.08	0.14699	0.010895	34.753	0.028775	398.12	436.63	2.0075	0.71005	1.1176	222.81	19.709	12.196	0.013728
241.27	1.3397	1083.6	0.00092285	128.22	129.45	0.73413	0.94407	2.0596	797.04	-0.017308	169.00	0.14695	0.010889	34.789	0.028745	398.13	436.64	2.0073	0.71017	1.1179	222.80	19.702	12.197	0.013731
241.30	1.3411	1083.5	0.00092295	128.28	129.52	0.73438	0.94404	2.0598	796.82	-0.017086	168.91	0.14692	0.010882	34.825	0.028715	398.13	436.64	2.0072	0.71028	1.1183	222.80	19.696	12.199	0.013735
241.33	1.3425	1083.4	0.00092306	128.34	129.58	0.73463	0.94401	2.0600	796.59	-0.016864	168.83	0.14688	0.010875	34.861	0.028685	398.13	436.64	2.0070	0.71040	1.1186	222.79	19.690	12.201	0.013739
241.36	1.3439	1083.2	0.00092317	128.40	129.64	0.73489	0.94398	2.0602	796.37	-0.016642	168.75	0.14684	0.010869	34.898	0.028655	398.14	436.65	2.0069	0.71051	1.1190	222.79	19.683	12.203	0.013743
241.39	1.3453	1083.1	0.00092327	128.46	129.70	0.73514	0.94395	2.0604	796.15	-0.016420	168.67	0.14681	0.010862	34.934	0.028626	398.14	436.65	2.0067	0.71063	1.1193	222.79	19.677	12.204	0.013747
241.42	1.3467	1083.0	0.00092338	128.52	129.76	0.73539	0.94392	2.0606	795.93	-0.016198	168.59	0.14677	0.010856	34.970	0.028596	398.15	436.65	2.0066	0.71074	1.1197	222.78	19.671	12.206	0.013751
241.45	1.3480	1082.9	0.00092349	128.58	129.83	0.73564	0.94389	2.0608	795.71	-0.015976	168.50	0.14674	0.010849	35.006	0.028566	398.15	436.66	2.0064	0.71086	1.1200	222.78	19.665	12.208	0.013755
241.48	1.3494	1082.7	0.00092359	128.64	129.89	0.73589	0.94386	2.0610	795.48	-0.015754	168.42	0.14670	0.010843	35.042	0.028537	398.15	436.66	2.0063	0.71097	1.1204	222.77	19.659	12.210	0.013759
241.51	1.3508	1082.6	0.00092370	128.70	129.95	0.73614	0.94383	2.0612	795.26	-0.015532	168.34	0.14666	0.010836	35.078	0.028508	398.16	436.66	2.0061	0.71109	1.1207	222.77	19.652	12.211	0.013763
241.54	1.3522	1082.5	0.00092381	128.76	130.01	0.73640	0.94380	2.0614	795.04	-0.015310	168.26	0.14663	0.010830	35.115	0.028478	398.16	436.67	2.0060	0.71120	1.1211	222.77	19.646	12.213	0.013767
241.57	1.3536	1082.4	0.00092391	128.82	130.07	0.73665	0.94377	2.0617	794.82	-0.015087	168.18	0.14659	0.010823	35.151	0.028449	398.16	436.67	2.0058	0.71132	1.1215	222.76	19.640	12.215	0.013771
241.60	1.3550	1082.2	0.00092402	128.88	130.14	0.73690	0.94374	2.0619	794.60	-0.014865	168.10	0.14656	0.010817	35.187	0.028420	398.17	436.67	2.0057	0.71143	1.1218	222.76	19.634	12.216	0.013775
241.63	1.3563	1082.1	0.00092413	128.94	130.20	0.73715	0.94371	2.0621	794.38	-0.014642	168.02	0.14652	0.010810	35.223	0.028390	398.17	436.68	2.0055	0.71155	1.1222	222.75	19.628	12.218	0.013779
241.66	1.3577	1082.0	0.00092423	129.01	130.26	0.73740	0.94368	2.0623	794.16	-0.014420	167.94	0.14648	0.010804	35.259	0.028361	398.17	436.68	2.0054	0.71166	1.1225	222.75	19.621	12.220	0.013782
241.69	1.3591	1081.9	0.00092434	129.07	130.32	0.73765	0.94365	2.0625	793.94	-0.014198	167.86	0.14645	0.010797	35.296	0.028332	398.18	436.68	2.0052	0.71178	1.1229	222.75	19.615	12.222	0.013786
241.72	1.3605	1081.7	0.00092445	129.13	130.38	0.73790	0.94362	2.0627	793.72	-0.013975	167.78	0.14641	0.010791	35.332	0.028303	398.18	436.69	2.0051	0.71189	1.1232	222.74	19.609	12.223	0.013790
241.75	1.3619	1081.6	0.00092455	129.19	130.45	0.73815	0.94359	2.0629	793.50	-0.013752	167.70	0.14638	0.010784	35.368	0.028274	398.18	436.69	2.0049	0.71201	1.1236	222.74	19.603	12.225	0.013794
241.78	1.3632	1081.5	0.00092466	129.25	130.51	0.73840	0.94357	2.0631	793.28	-0.013530	167.61	0.14634	0.010778	35.404	0.028245	398.19	436.69	2.0048	0.71212	1.1239	222.73	19.597	12.227	0.013798
241.81	1.3646	1081.4	0.00092477	129.31	130.57	0.73865	0.94354	2.0633	793.06	-0.013307	167.53	0.14630	0.010771	35.440	0.028216	398.19	436.70	2.0046	0.71224	1.1243	222.73	19.591	12.229	0.013802
241.84	1.3660	1081.2	0.00092487	129.37	130.63	0.73890	0.94351	2.0635	792.84	-0.013084	167.45	0.14627	0.010765	35.477	0.028188	398.19	436.70	2.0045	0.71235	1.1246	222.73	19.584	12.230	0.013806
241.87	1.3674	1081.1	0.00092498	129.43	130.69	0.73914	0.94348	2.0638	792.62	-0.012861	167.37	0.14623	0.010758	35.513	0.028159	398.20	436.70	2.0043	0.71247	1.1250	222.72	19.578	12.232	0.013810
241.90	1.3688	1081.0	0.00092509	129.49	130.75	0.73939	0.94345	2.0640	792.40	-0.012639	167.29	0.14620	0.010752	35.549	0.028130	398.20	436.70	2.0042	0.71258	1.1254	222.72	19.572	12.234	0.013814
241.93	1.3702	1080.9	0.00092519	129.55	130.81	0.73964	0.94342	2.0642	792.18	-0.012416	167.21	0.14616	0.010745	35.585	0.028101	398.20	436.71	2.0040	0.71270	1.1257	222.71	19.566	12.236	0.013818
241.96	1.3715	1080.7	0.00092530	129.61	130.88	0.73989	0.94339	2.0644	791.96	-0.012193	167.13	0.14613	0.010739	35.622	0.028073	398.21	436.71	2.0039	0.71281	1.1261	222.71	19.560	12.237	0.013822
241.99	1.3729	1080.6	0.00092541	129.67	130.94	0.74014	0.94336	2.0646	791.74	-0.011970	167.05	0.14609	0.010733	35.658	0.028044	398.21	436.71	2.0037	0.71293	1.1264	222.70	19.554	12.239	0.013825
242.02	1.3743	1080.5	0.00092551	129.73	131.00	0.74039	0.94333	2.0648	791.52	-0.011747	166.98	0.14606	0.010726	35.694	0.028016	398.21	436.72	2.0036	0.71304	1.1268	222.70	19.548	12.241	0.013829
242.05	1.3757	1080.4	0.00092562	129.79	131.06	0.74063	0.94330	2.0650	791.30	-0.011524	166.90	0.14602	0.010720	35.730	0.027987	398.22	436.72	2.0034	0.71316	1.1271	222.70	19.542	12.242	0.013833
242.08	1.3771	1080.2	0.00092573	129.85	131.12	0.74088	0.94327	2.0652	791.09	-0.011300	166.82	0.14598	0.010713	35.767	0.027959	398.22	436.72	2.0033	0.71327	1.1275	222.69	19.536	12.244	0.013837
242.11	1.3785	1080.1	0.00092583	129.91	131.18	0.74113	0.94325	2.0655	790.87	-0.011077	166.74	0.14595	0.010707	35.803	0.027931	398.22	436.73	2.0031	0.71339	1.1279	222.69	19.530	12.246	0.013841
242.14	1.3798	1080.0	0.00092594	129.97	131.24	0.74138	0.94322	2.0657	790.65	-0.010854	166.66	0.14591	0.010701	35.839	0.027902	398.23	436.73	2.0030	0.71350	1.1282	222.68	19.523	12.248	0.013845
242.17	1.3812	1079.9	0.00092604	130.02	131.30	0.74162	0.94319	2.0659	790.43	-0.010631	166.58	0.14588	0.010694	35.875	0.027874	398.23	436.73	2.0028	0.71362	1.1286	222.68	19.517	12.249	0.013849
242.20	1.3826	1079.7	0.00092615	130.08	131.37	0.74187	0.94316	2.0661	790.21	-0.010407	166.50	0.14584	0.010688	35.912	0.027846	398.23	436.73	2.0027	0.71373	1.1289	222.68	19.511	12.251	0.013853
242.23	1.3840	1079.6	0.00092626	130.14	131.43	0.74212	0.94313	2.0663	789.99	-0.010184	166.42	0.14581	0.010681	35.948	0.027818	398.24	436.74	2.0025	0.71384	1.1293	222.67	19.505	12.253	0.013857
242.26	1.3854	1079.5	0.00092636	130.20	131.49	0.74236	0.94310	2.0665	789.78	-0.0099603	166.34	0.14577	0.010675	35.984	0.027790	398.24	436.74	2.0024	0.71396	1.1296	222.67	19.499	12.255	0.013861
242.29	1.3868	1079.4	0.00092647	130.26	131.55	0.74261	0.94307	2.0667	789.56	-0.0097368	166.26	0.14574	0.010669	36.021	0.027762	398.24	436.74	2.0023	0.71407	1.1300	222.66	19.493	12.256	0.013865
242.32	1.3881	1079.2	0.00092657	130.32	131.61	0.74286	0.94304	2.0669	789.34	-0.0095133	166.18	0.14570	0.010662	36.057	0.027734	398.25	436.75	2.0021	0.71419	1.1303	222.66	19.487	12.258	0.013869
242.34	1.3895	1079.1	0.00092668	130.38	131.67	0.74310	0.94302	2.0671	789.12	-0.0092896	166.11	0.14567	0.010656	36.093	0.027706	398.25	436.75	2.0020	0.71430	1.1307	222.65	19.481	12.260	0.013872
242.37	1.3909	1079.0	0.00092679	130.44	131.73	0.74335	0.94299	2.0674	788.91	-0.0090660	166.03	0.14563	0.010650	36.129	0.027678	398.25	436.75	2.0018	0.71442	1.1311	222.65	19.475	12.261	0.013876
242.40	1.3923	1078.9	0.00092689	130.50	131.79	0.74359	0.94296	2.0676	788.69	-0.0088423	165.95	0.14560	0.010643	36.166	0.027651	398.26	436.75	2.0017	0.71453	1.1314	222.65	19.469	12.263	0.013880
242.43	1.3937	1078.8	0.00092700	130.56	131.85	0.74384	0.94293	2.0678	788.47	-0.0086185	165.87	0.14556	0.010637	36.202	0.027623	398.26	436.76	2.0015	0.71464	1.1318	222.64	19.463	12.265	0.013884
242.46	1.3951	1078.6	0.00092710	130.62	131.91	0.74408	0.94290	2.0680	788.26	-0.0083947	165.79	0.14553	0.010630	36.238	0.027595	398.26	436.76	2.0014	0.71476	1.1321	222.64	19.457	12.267	0.013888
242.49	1.3964	1078.5	0.00092721	130.68	131.97	0.74433	0.94287	2.0682	788.04	-0.0081708	165.71	0.14549	0.010624	36.275	0.027568	398.27	436.76	2.0012	0.71487	1.1325	222.63	19.451	12.268	0.013892
242.52	1.3978	1078.4	0.00092732	130.74	132.03	0.74457	0.94285	2.0684	787.82	-0.0079469	165.64	0.14546	0.010618	36.311	0.027540	398.27	436.76	2.0011	0.71499	1.1328	222.63	19.445	12.270	0.013896
242.55	1.3992	1078.3	0.00092742	130.80	132.09	0.74482	0.94282	2.0686	787.61	-0.0077229	165.56	0.14542	0.010611	36.347	0.027512	398.27	436.77	2.0009	0.71510	1.1332	222.63	19.439	12.272	0.013900
242.58	1.4006	1078.1	0.00092753	130.86	132.16	0.74506	0.94279	2.0689	787.39	-0.0074989	165.48	0.14539	0.010605	36.384	0.027485	398.27	436.77	2.0008	0.71521	1.1336	222.62	19.433	12.273	0.013904
242.61	1.4020	1078.0	0.00092763	130.92	132.22	0.74531	0.94276	2.0691	787.18	-0.0072748	165.40	0.14535	0.010599	36.420	0.027458	398.28	436.77	2.0006	0.71533	1.1339	222.62	19.428	12.275	0.013908
242.64	1.4034	1077.9	0.00092774	130.97	132.28	0.74555	0.94273	2.0693	786.96	-0.0070507	165.33	0.14532	0.010593	36.456	0.027430	398.28	436.78	2.0005	0.71544	1.1343	222.61	19.422	12.277	0.013911
242.67	1.4047	1077.8	0.00092784	131.03	132.34	0.74579	0.94271	2.0695	786.74	-0.0068265	165.25	0.14528	0.010586	36.493	0.027403	398.28	436.78	2.0004	0.71556	1.1346	222.61	19.416	12.279	0.013915
242.70	1.4061	1077.6	0.00092795	131.09	132.40	0.74604	0.94268	2.0697	786.53	-0.0066022	165.17	0.14525	0.010580	36.529	0.027376	398.29	436.78	2.0002	0.71567	1.1350	222.60	19.410	12.280	0.013919
242.73	1.4075	1077.5	0.00092806	131.15	132.46	0.74628	0.94265	2.0699	786.31	-0.0063779	165.09	0.14521	0.010574	36.565	0.027348	398.29	436.78	2.0001	0.71578	1.1353	222.60	19.404	12.282	0.013923
242.75	1.4089	1077.4	0.00092816	131.21	132.52	0.74652	0.94262	2.0701	786.10	-0.0061536	165.02	0.14518	0.010567	36.602	0.027321	398.29	436.79	1.9999	0.71590	1.1357	222.60	19.398	12.284	0.013927
242.78	1.4103	1077.3	0.00092827	131.27	132.58	0.74677	0.94259	2.0703	785.88	-0.0059292	164.94	0.14514	0.010561	36.638	0.027294	398.30	436.79	1.9998	0.71601	1.1361	222.59	19.392	12.285	0.013931
242.81	1.4116	1077.2	0.00092837	131.33	132.64	0.74701	0.94257	2.0706	785.67	-0.0057048	164.86	0.14511	0.010555	36.674	0.027267	398.30	436.79	1.9996	0.71612	1.1364	222.59	19.386	12.287	0.013935
242.84	1.4130	1077.0	0.00092848	131.39	132.70	0.74725	0.94254	2.0708	785.45	-0.0054803	164.79	0.14507	0.010549	36.711	0.027240	398.30	436.79	1.9995	0.71624	1.1368	222.58	19.380	12.289	0.013939
242.87	1.4144	1076.9	0.00092858	131.45	132.76	0.74749	0.94251	2.0710	785.24	-0.0052557	164.71	0.14504	0.010542	36.747	0.027213	398.31	436.80	1.9993	0.71635	1.1371	222.58	19.374	12.290	0.013943
242.90	1.4158	1076.8	0.00092869	131.50	132.82	0.74774	0.94248	2.0712	785.02	-0.0050311	164.63	0.14500	0.010536	36.783	0.027186	398.31	436.80	1.9992	0.71646	1.1375	222.57	19.368	12.292	0.013947
242.93	1.4172	1076.7	0.00092879	131.56	132.88	0.74798	0.94245	2.0714	784.81	-0.0048065	164.56	0.14497	0.010530	36.820	0.027159	398.31	436.80	1.9991	0.71658	1.1379	222.57	19.363	12.294	0.013950
242.96	1.4186	1076.5	0.00092890	131.62	132.94	0.74822	0.94243	2.0716	784.59	-0.0045817	164.48	0.14493	0.010523	36.856	0.027133	398.31	436.80	1.9989	0.71669	1.1382	222.57	19.357	12.296	0.013954
242.99	1.4199	1076.4	0.00092900	131.68	133.00	0.74846	0.94240	2.0718	784.38	-0.0043570	164.40	0.14490	0.010517	36.892	0.027106	398.32	436.81	1.9988	0.71681	1.1386	222.56	19.351	12.297	0.013958
243.02	1.4213	1076.3	0.00092911	131.74	133.06	0.74870	0.94237	2.0721	784.17	-0.0041322	164.33	0.14486	0.010511	36.929	0.027079	398.32	436.81	1.9986	0.71692	1.1389	222.56	19.345	12.299	0.013962
243.04	1.4227	1076.2	0.00092922	131.80	133.12	0.74895	0.94234	2.0723	783.95	-0.0039073	164.25	0.14483	0.010505	36.965	0.027052	398.32	436.81	1.9985	0.71703	1.1393	222.55	19.339	12.301	0.013966
243.07	1.4241	1076.1	0.00092932	131.86	133.18	0.74919	0.94232	2.0725	783.74	-0.0036824	164.17	0.14479	0.010499	37.002	0.027026	398.33	436.81	1.9983	0.71715	1.1396	222.55	19.333	12.302	0.013970
243.10	1.4255	1075.9	0.00092943	131.91	133.24	0.74943	0.94229	2.0727	783.52	-0.0034574	164.10	0.14476	0.010492	37.038	0.026999	398.33	436.82	1.9982	0.71726	1.1400	222.54	19.328	12.304	0.013974
243.13	1.4269	1075.8	0.00092953	131.97	133.30	0.74967	0.94226	2.0729	783.31	-0.0032324	164.02	0.14473	0.010486	37.074	0.026973	398.33	436.82	1.9980	0.71737	1.1404	222.54	19.322	12.306	0.013978
243.16	1.4282	1075.7	0.00092964	132.03	133.36	0.74991	0.94223	2.0731	783.10	-0.0030073	163.95	0.14469	0.010480	37.111	0.026946	398.33	436.82	1.9979	0.71749	1.1407	222.53	19.316	12.308	0.013982
243.19	1.4296	1075.6	0.00092974	132.09	133.42	0.75015	0.94221	2.0734	782.88	-0.0027822	163.87	0.14466	0.010474	37.147	0.026920	398.34	436.82	1.9978	0.71760	1.1411	222.53	19.310	12.309	0.013986
243.22	1.4310	1075.4	0.00092985	132.15	133.48	0.75039	0.94218	2.0736	782.67	-0.0025570	163.79	0.14462	0.010467	37.184	0.026894	398.34	436.83	1.9976	0.71771	1.1414	222.53	19.304	12.311	0.013989
243.25	1.4324	1075.3	0.00092995	132.21	133.54	0.75063	0.94215	2.0738	782.46	-0.0023317	163.72	0.14459	0.010461	37.220	0.026867	398.34	436.83	1.9975	0.71783	1.1418	222.52	19.299	12.313	0.013993
243.28	1.4338	1075.2	0.00093006	132.26	133.60	0.75087	0.94213	2.0740	782.24	-0.0021064	163.64	0.14455	0.010455	37.256	0.026841	398.35	436.83	1.9973	0.71794	1.1422	222.52	19.293	12.314	0.013997
243.30	1.4352	1075.1	0.00093016	132.32	133.66	0.75111	0.94210	2.0742	782.03	-0.0018811	163.57	0.14452	0.010449	37.293	0.026815	398.35	436.83	1.9972	0.71805	1.1425	222.51	19.287	12.316	0.014001
243.33	1.4365	1075.0	0.00093027	132.38	133.72	0.75135	0.94207	2.0744	781.82	-0.0016557	163.49	0.14449	0.010443	37.329	0.026789	398.35	436.84	1.9970	0.71816	1.1429	222.51	19.281	12.318	0.014005
243.36	1.4379	1074.8	0.00093037	132.44	133.78	0.75159	0.94204	2.0746	781.61	-0.0014302	163.42	0.14445	0.010436	37.366	0.026763	398.35	436.84	1.9969	0.71828	1.1432	222.50	19.275	12.319	0.014009
243.39	1.4393	1074.7	0.00093048	132.50	133.84	0.75183	0.94202	2.0749	781.39	-0.0012047	163.34	0.14442	0.010430	37.402	0.026737	398.36	436.84	1.9968	0.71839	1.1436	222.50	19.270	12.321	0.014013
243.42	1.4407	1074.6	0.00093058	132.55	133.89	0.75207	0.94199	2.0751	781.18	-0.00097913	163.27	0.14438	0.010424	37.438	0.026710	398.36	436.84	1.9966	0.71850	1.1440	222.50	19.264	12.323	0.014017
243.45	1.4421	1074.5	0.00093069	132.61	133.95	0.75230	0.94196	2.0753	780.97	-0.00075351	163.19	0.14435	0.010418	37.475	0.026685	398.36	436.84	1.9965	0.71862	1.1443	222.49	19.258	12.324	0.014021
243.48	1.4435	1074.4	0.00093079	132.67	134.01	0.75254	0.94194	2.0755	780.76	-0.00052784	163.12	0.14431	0.010412	37.511	0.026659	398.37	436.85	1.9963	0.71873	1.1447	222.49	19.252	12.326	0.014024
243.50	1.4448	1074.2	0.00093090	132.73	134.07	0.75278	0.94191	2.0757	780.55	-0.00030211	163.04	0.14428	0.010406	37.548	0.026633	398.37	436.85	1.9962	0.71884	1.1450	222.48	19.247	12.328	0.014028
243.53	1.4462	1074.1	0.00093100	132.79	134.13	0.75302	0.94188	2.0759	780.33	-7.6323e-05	162.97	0.14425	0.010399	37.584	0.026607	398.37	436.85	1.9961	0.71896	1.1454	222.48	19.241	12.330	0.014032
243.56	1.4476	1074.0	0.00093111	132.84	134.19	0.75326	0.94186	2.0762	780.12	0.00014952	162.89	0.14421	0.010393	37.621	0.026581	398.37	436.85	1.9959	0.71907	1.1458	222.47	19.235	12.331	0.014036
243.59	1.4490	1073.9	0.00093121	132.90	134.25	0.75350	0.94183	2.0764	779.91	0.00037541	162.82	0.14418	0.010387	37.657	0.026555	398.38	436.86	1.9958	0.71918	1.1461	222.47	19.230	12.333	0.014040
243.62	1.4504	1073.7	0.00093132	132.96	134.31	0.75373	0.94180	2.0766	779.70	0.00060136	162.74	0.14414	0.010381	37.694	0.026530	398.38	436.86	1.9956	0.71929	1.1465	222.46	19.224	12.335	0.014044
243.65	1.4518	1073.6	0.00093142	133.02	134.37	0.75397	0.94178	2.0768	779.49	0.00082736	162.67	0.14411	0.010375	37.730	0.026504	398.38	436.86	1.9955	0.71941	1.1468	222.46	19.218	12.336	0.014048
243.68	1.4531	1073.5	0.00093153	133.07	134.43	0.75421	0.94175	2.0770	779.28	0.0010534	162.59	0.14408	0.010369	37.767	0.026478	398.39	436.86	1.9953	0.71952	1.1472	222.45	19.212	12.338	0.014052
243.70	1.4545	1073.4	0.00093163	133.13	134.49	0.75445	0.94172	2.0772	779.07	0.0012795	162.52	0.14404	0.010363	37.803	0.026453	398.39	436.86	1.9952	0.71963	1.1476	222.45	19.207	12.340	0.014056
243.73	1.4559	1073.3	0.00093173	133.19	134.55	0.75468	0.94170	2.0775	778.86	0.0015057	162.45	0.14401	0.010357	37.839	0.026427	398.39	436.87	1.9951	0.71974	1.1479	222.45	19.201	12.341	0.014059
243.76	1.4573	1073.1	0.00093184	133.25	134.61	0.75492	0.94167	2.0777	778.64	0.0017319	162.37	0.14397	0.010350	37.876	0.026402	398.39	436.87	1.9949	0.71986	1.1483	222.44	19.195	12.343	0.014063
243.79	1.4587	1073.0	0.00093194	133.30	134.66	0.75516	0.94164	2.0779	778.43	0.0019582	162.30	0.14394	0.010344	37.912	0.026377	398.40	436.87	1.9948	0.71997	1.1486	222.44	19.190	12.345	0.014067
243.82	1.4600	1072.9	0.00093205	133.36	134.72	0.75539	0.94162	2.0781	778.22	0.0021845	162.22	0.14391	0.010338	37.949	0.026351	398.40	436.87	1.9946	0.72008	1.1490	222.43	19.184	12.346	0.014071
243.85	1.4614	1072.8	0.00093215	133.42	134.78	0.75563	0.94159	2.0783	778.01	0.0024109	162.15	0.14387	0.010332	37.985	0.026326	398.40	436.88	1.9945	0.72019	1.1494	222.43	19.178	12.348	0.014075
243.87	1.4628	1072.7	0.00093226	133.48	134.84	0.75587	0.94156	2.0786	777.80	0.0026374	162.08	0.14384	0.010326	38.022	0.026301	398.40	436.88	1.9944	0.72031	1.1497	222.42	19.173	12.350	0.014079
243.90	1.4642	1072.5	0.00093236	133.53	134.90	0.75610	0.94154	2.0788	777.59	0.0028639	162.00	0.14380	0.010320	38.058	0.026275	398.41	436.88	1.9942	0.72042	1.1501	222.42	19.167	12.351	0.014083
243.93	1.4656	1072.4	0.00093247	133.59	134.96	0.75634	0.94151	2.0790	777.38	0.0030904	161.93	0.14377	0.010314	38.095	0.026250	398.41	436.88	1.9941	0.72053	1.1504	222.41	19.162	12.353	0.014087
243.96	1.4670	1072.3	0.00093257	133.65	135.02	0.75657	0.94149	2.0792	777.17	0.0033170	161.86	0.14374	0.010308	38.131	0.026225	398.41	436.88	1.9939	0.72064	1.1508	222.41	19.156	12.355	0.014091
243.99	1.4683	1072.2	0.00093268	133.71	135.08	0.75681	0.94146	2.0794	776.96	0.0035437	161.78	0.14370	0.010302	38.168	0.026200	398.41	436.89	1.9938	0.72076	1.1512	222.41	19.150	12.356	0.014094
244.02	1.4697	1072.1	0.00093278	133.76	135.13	0.75704	0.94143	2.0796	776.75	0.0037704	161.71	0.14367	0.010296	38.204	0.026175	398.42	436.89	1.9937	0.72087	1.1515	222.40	19.145	12.358	0.014098
244.04	1.4711	1071.9	0.00093288	133.82	135.19	0.75728	0.94141	2.0799	776.54	0.0039972	161.64	0.14364	0.010290	38.241	0.026150	398.42	436.89	1.9935	0.72098	1.1519	222.40	19.139	12.360	0.014102
244.07	1.4725	1071.8	0.00093299	133.88	135.25	0.75751	0.94138	2.0801	776.34	0.0042241	161.56	0.14360	0.010284	38.278	0.026125	398.42	436.89	1.9934	0.72109	1.1522	222.39	19.133	12.361	0.014106
244.10	1.4739	1071.7	0.00093309	133.94	135.31	0.75775	0.94136	2.0803	776.13	0.0044509	161.49	0.14357	0.010278	38.314	0.026100	398.43	436.89	1.9932	0.72121	1.1526	222.39	19.128	12.363	0.014110
244.13	1.4753	1071.6	0.00093320	133.99	135.37	0.75798	0.94133	2.0805	775.92	0.0046779	161.42	0.14353	0.010272	38.351	0.026075	398.43	436.90	1.9931	0.72132	1.1530	222.38	19.122	12.365	0.014114
244.16	1.4766	1071.5	0.00093330	134.05	135.43	0.75822	0.94130	2.0807	775.71	0.0049049	161.35	0.14350	0.010265	38.387	0.026050	398.43	436.90	1.9930	0.72143	1.1533	222.38	19.117	12.367	0.014118
244.18	1.4780	1071.3	0.00093341	134.11	135.49	0.75845	0.94128	2.0810	775.50	0.0051320	161.27	0.14347	0.010259	38.424	0.026026	398.43	436.90	1.9928	0.72154	1.1537	222.37	19.111	12.368	0.014122
244.21	1.4794	1071.2	0.00093351	134.16	135.54	0.75869	0.94125	2.0812	775.29	0.0053591	161.20	0.14343	0.010253	38.460	0.026001	398.44	436.90	1.9927	0.72165	1.1541	222.37	19.106	12.370	0.014126
244.24	1.4808	1071.1	0.00093361	134.22	135.60	0.75892	0.94123	2.0814	775.08	0.0055863	161.13	0.14340	0.010247	38.497	0.025976	398.44	436.90	1.9925	0.72177	1.1544	222.36	19.100	12.372	0.014129
244.27	1.4822	1071.0	0.00093372	134.28	135.66	0.75915	0.94120	2.0816	774.87	0.0058135	161.05	0.14337	0.010241	38.533	0.025952	398.44	436.91	1.9924	0.72188	1.1548	222.36	19.094	12.373	0.014133
244.30	1.4836	1070.9	0.00093382	134.33	135.72	0.75939	0.94117	2.0818	774.66	0.0060408	160.98	0.14333	0.010235	38.570	0.025927	398.44	436.91	1.9923	0.72199	1.1551	222.35	19.089	12.375	0.014137
244.33	1.4849	1070.7	0.00093393	134.39	135.78	0.75962	0.94115	2.0820	774.46	0.0062681	160.91	0.14330	0.010229	38.606	0.025902	398.45	436.91	1.9921	0.72210	1.1555	222.35	19.083	12.377	0.014141
244.35	1.4863	1070.6	0.00093403	134.45	135.84	0.75985	0.94112	2.0823	774.25	0.0064955	160.84	0.14327	0.010223	38.643	0.025878	398.45	436.91	1.9920	0.72222	1.1559	222.35	19.078	12.378	0.014145
244.38	1.4877	1070.5	0.00093414	134.51	135.89	0.76009	0.94110	2.0825	774.04	0.0067230	160.77	0.14323	0.010217	38.680	0.025853	398.45	436.91	1.9918	0.72233	1.1562	222.34	19.072	12.380	0.014149
244.41	1.4891	1070.4	0.00093424	134.56	135.95	0.76032	0.94107	2.0827	773.83	0.0069505	160.69	0.14320	0.010211	38.716	0.025829	398.45	436.91	1.9917	0.72244	1.1566	222.34	19.067	12.382	0.014153
244.44	1.4905	1070.3	0.00093434	134.62	136.01	0.76055	0.94105	2.0829	773.63	0.0071781	160.62	0.14317	0.010205	38.753	0.025805	398.46	436.92	1.9916	0.72255	1.1570	222.33	19.061	12.383	0.014157
244.46	1.4919	1070.2	0.00093445	134.68	136.07	0.76079	0.94102	2.0831	773.42	0.0074057	160.55	0.14313	0.010199	38.789	0.025780	398.46	436.92	1.9914	0.72266	1.1573	222.33	19.056	12.385	0.014160
244.49	1.4932	1070.0	0.00093455	134.73	136.13	0.76102	0.94099	2.0834	773.21	0.0076334	160.48	0.14310	0.010193	38.826	0.025756	398.46	436.92	1.9913	0.72277	1.1577	222.32	19.050	12.387	0.014164
244.52	1.4946	1069.9	0.00093466	134.79	136.19	0.76125	0.94097	2.0836	773.00	0.0078611	160.41	0.14307	0.010187	38.862	0.025732	398.46	436.92	1.9912	0.72289	1.1580	222.32	19.045	12.388	0.014168
244.55	1.4960	1069.8	0.00093476	134.85	136.24	0.76148	0.94094	2.0838	772.80	0.0080889	160.33	0.14303	0.010181	38.899	0.025708	398.46	436.92	1.9910	0.72300	1.1584	222.31	19.039	12.390	0.014172
244.58	1.4974	1069.7	0.00093486	134.90	136.30	0.76172	0.94092	2.0840	772.59	0.0083168	160.26	0.14300	0.010175	38.936	0.025683	398.47	436.93	1.9909	0.72311	1.1588	222.31	19.034	12.392	0.014176
244.60	1.4988	1069.6	0.00093497	134.96	136.36	0.76195	0.94089	2.0842	772.38	0.0085447	160.19	0.14297	0.010169	38.972	0.025659	398.47	436.93	1.9907	0.72322	1.1591	222.30	19.028	12.393	0.014180
244.63	1.5001	1069.4	0.00093507	135.01	136.42	0.76218	0.94087	2.0845	772.17	0.0087727	160.12	0.14293	0.010164	39.009	0.025635	398.47	436.93	1.9906	0.72333	1.1595	222.30	19.023	12.395	0.014184
244.66	1.5015	1069.3	0.00093517	135.07	136.48	0.76241	0.94084	2.0847	771.97	0.0090007	160.05	0.14290	0.010158	39.045	0.025611	398.47	436.93	1.9905	0.72345	1.1599	222.29	19.017	12.397	0.014188
244.69	1.5029	1069.2	0.00093528	135.13	136.53	0.76264	0.94082	2.0849	771.76	0.0092288	159.98	0.14287	0.010152	39.082	0.025587	398.48	436.93	1.9903	0.72356	1.1602	222.29	19.012	12.398	0.014191
244.72	1.5043	1069.1	0.00093538	135.18	136.59	0.76287	0.94079	2.0851	771.55	0.0094570	159.91	0.14283	0.010146	39.119	0.025563	398.48	436.93	1.9902	0.72367	1.1606	222.28	19.006	12.400	0.014195
244.74	1.5057	1069.0	0.00093549	135.24	136.65	0.76310	0.94077	2.0853	771.35	0.0096852	159.83	0.14280	0.010140	39.155	0.025539	398.48	436.94	1.9900	0.72378	1.1609	222.28	19.001	12.402	0.014199
244.77	1.5071	1068.8	0.00093559	135.30	136.71	0.76333	0.94074	2.0856	771.14	0.0099134	159.76	0.14277	0.010134	39.192	0.025515	398.48	436.94	1.9899	0.72389	1.1613	222.28	18.995	12.403	0.014203
244.80	1.5084	1068.7	0.00093569	135.35	136.76	0.76356	0.94072	2.0858	770.94	0.010142	159.69	0.14273	0.010128	39.229	0.025492	398.49	436.94	1.9898	0.72400	1.1617	222.27	18.990	12.405	0.014207
244.83	1.5098	1068.6	0.00093580	135.41	136.82	0.76380	0.94069	2.0860	770.73	0.010370	159.62	0.14270	0.010122	39.265	0.025468	398.49	436.94	1.9896	0.72412	1.1620	222.27	18.985	12.407	0.014211
244.85	1.5112	1068.5	0.00093590	135.47	136.88	0.76403	0.94067	2.0862	770.52	0.010599	159.55	0.14267	0.010116	39.302	0.025444	398.49	436.94	1.9895	0.72423	1.1624	222.26	18.979	12.408	0.014215
244.88	1.5126	1068.4	0.00093600	135.52	136.94	0.76426	0.94064	2.0865	770.32	0.010827	159.48	0.14264	0.010110	39.338	0.025420	398.49	436.94	1.9894	0.72434	1.1628	222.26	18.974	12.410	0.014219
244.91	1.5140	1068.3	0.00093611	135.58	137.00	0.76449	0.94062	2.0867	770.11	0.011056	159.41	0.14260	0.010104	39.375	0.025397	398.50	436.95	1.9892	0.72445	1.1631	222.25	18.968	12.411	0.014222
244.94	1.5154	1068.1	0.00093621	135.63	137.05	0.76472	0.94059	2.0869	769.91	0.011284	159.34	0.14257	0.010098	39.412	0.025373	398.50	436.95	1.9891	0.72456	1.1635	222.25	18.963	12.413	0.014226
244.96	1.5167	1068.0	0.00093632	135.69	137.11	0.76495	0.94057	2.0871	769.70	0.011513	159.27	0.14254	0.010092	39.448	0.025350	398.50	436.95	1.9890	0.72467	1.1639	222.24	18.957	12.415	0.014230
244.99	1.5181	1067.9	0.00093642	135.75	137.17	0.76517	0.94054	2.0873	769.50	0.011742	159.20	0.14250	0.010086	39.485	0.025326	398.50	436.95	1.9888	0.72478	1.1642	222.24	18.952	12.416	0.014234
245.02	1.5195	1067.8	0.00093652	135.80	137.23	0.76540	0.94052	2.0876	769.29	0.011970	159.13	0.14247	0.010081	39.522	0.025303	398.50	436.95	1.9887	0.72490	1.1646	222.23	18.947	12.418	0.014238
245.05	1.5209	1067.7	0.00093663	135.86	137.28	0.76563	0.94049	2.0878	769.08	0.012199	159.06	0.14244	0.010075	39.558	0.025279	398.51	436.95	1.9885	0.72501	1.1650	222.23	18.941	12.420	0.014242
245.07	1.5223	1067.5	0.00093673	135.91	137.34	0.76586	0.94047	2.0880	768.88	0.012428	158.99	0.14241	0.010069	39.595	0.025256	398.51	436.95	1.9884	0.72512	1.1653	222.22	18.936	12.421	0.014246
245.10	1.5237	1067.4	0.00093683	135.97	137.40	0.76609	0.94044	2.0882	768.68	0.012657	158.92	0.14237	0.010063	39.632	0.025232	398.51	436.96	1.9883	0.72523	1.1657	222.22	18.930	12.423	0.014250
245.13	1.5250	1067.3	0.00093694	136.03	137.46	0.76632	0.94042	2.0884	768.47	0.012886	158.85	0.14234	0.010057	39.668	0.025209	398.51	436.96	1.9881	0.72534	1.1660	222.21	18.925	12.425	0.014254
245.16	1.5264	1067.2	0.00093704	136.08	137.51	0.76655	0.94039	2.0887	768.27	0.013115	158.78	0.14231	0.010051	39.705	0.025186	398.52	436.96	1.9880	0.72545	1.1664	222.21	18.920	12.426	0.014257
245.18	1.5278	1067.1	0.00093714	136.14	137.57	0.76678	0.94037	2.0889	768.06	0.013344	158.71	0.14227	0.010045	39.742	0.025162	398.52	436.96	1.9879	0.72556	1.1668	222.20	18.914	12.428	0.014261
245.21	1.5292	1067.0	0.00093725	136.19	137.63	0.76700	0.94035	2.0891	767.86	0.013574	158.64	0.14224	0.010039	39.779	0.025139	398.52	436.96	1.9877	0.72567	1.1671	222.20	18.909	12.430	0.014265
245.24	1.5306	1066.8	0.00093735	136.25	137.68	0.76723	0.94032	2.0893	767.65	0.013803	158.57	0.14221	0.010034	39.815	0.025116	398.52	436.96	1.9876	0.72579	1.1675	222.19	18.904	12.431	0.014269
245.27	1.5320	1066.7	0.00093745	136.31	137.74	0.76746	0.94030	2.0896	767.45	0.014032	158.50	0.14218	0.010028	39.852	0.025093	398.52	436.97	1.9875	0.72590	1.1679	222.19	18.898	12.433	0.014273
245.29	1.5333	1066.6	0.00093756	136.36	137.80	0.76769	0.94027	2.0898	767.24	0.014262	158.43	0.14214	0.010022	39.889	0.025070	398.53	436.97	1.9873	0.72601	1.1682	222.18	18.893	12.435	0.014277
245.32	1.5347	1066.5	0.00093766	136.42	137.86	0.76792	0.94025	2.0900	767.04	0.014491	158.36	0.14211	0.010016	39.925	0.025047	398.53	436.97	1.9872	0.72612	1.1686	222.18	18.888	12.436	0.014281
245.35	1.5361	1066.4	0.00093776	136.47	137.91	0.76814	0.94022	2.0902	766.84	0.014721	158.29	0.14208	0.010010	39.962	0.025024	398.53	436.97	1.9870	0.72623	1.1690	222.17	18.882	12.438	0.014284
245.38	1.5375	1066.2	0.00093787	136.53	137.97	0.76837	0.94020	2.0905	766.63	0.014950	158.22	0.14205	0.010004	39.999	0.025001	398.53	436.97	1.9869	0.72634	1.1693	222.17	18.877	12.440	0.014288
245.40	1.5389	1066.1	0.00093797	136.58	138.03	0.76860	0.94018	2.0907	766.43	0.015180	158.15	0.14201	0.0099986	40.036	0.024978	398.53	436.97	1.9868	0.72645	1.1697	222.16	18.872	12.441	0.014292
245.43	1.5403	1066.0	0.00093807	136.64	138.08	0.76882	0.94015	2.0909	766.23	0.015409	158.08	0.14198	0.0099927	40.072	0.024955	398.54	436.97	1.9866	0.72656	1.1701	222.16	18.866	12.443	0.014296
245.46	1.5416	1065.9	0.00093818	136.69	138.14	0.76905	0.94013	2.0911	766.02	0.015639	158.01	0.14195	0.0099869	40.109	0.024932	398.54	436.98	1.9865	0.72667	1.1704	222.15	18.861	12.445	0.014300
245.49	1.5430	1065.8	0.00093828	136.75	138.20	0.76928	0.94010	2.0913	765.82	0.015869	157.94	0.14192	0.0099811	40.146	0.024909	398.54	436.98	1.9864	0.72678	1.1708	222.15	18.856	12.446	0.014304
245.51	1.5444	1065.7	0.00093838	136.81	138.25	0.76950	0.94008	2.0916	765.62	0.016099	157.88	0.14188	0.0099753	40.182	0.024886	398.54	436.98	1.9862	0.72690	1.1712	222.15	18.850	12.448	0.014308
245.54	1.5458	1065.5	0.00093849	136.86	138.31	0.76973	0.94005	2.0918	765.41	0.016329	157.81	0.14185	0.0099695	40.219	0.024864	398.55	436.98	1.9861	0.72701	1.1715	222.14	18.845	12.449	0.014312
245.57	1.5472	1065.4	0.00093859	136.92	138.37	0.76996	0.94003	2.0920	765.21	0.016559	157.74	0.14182	0.0099637	40.256	0.024841	398.55	436.98	1.9860	0.72712	1.1719	222.14	18.840	12.451	0.014315
245.59	1.5485	1065.3	0.00093869	136.97	138.43	0.77018	0.94001	2.0922	765.01	0.016789	157.67	0.14179	0.0099579	40.293	0.024818	398.55	436.98	1.9858	0.72723	1.1723	222.13	18.835	12.453	0.014319
245.62	1.5499	1065.2	0.00093880	137.03	138.48	0.77041	0.93998	2.0925	764.80	0.017019	157.60	0.14175	0.0099521	40.329	0.024796	398.55	436.98	1.9857	0.72734	1.1726	222.13	18.829	12.454	0.014323
245.65	1.5513	1065.1	0.00093890	137.08	138.54	0.77063	0.93996	2.0927	764.60	0.017249	157.53	0.14172	0.0099463	40.366	0.024773	398.55	436.98	1.9856	0.72745	1.1730	222.12	18.824	12.456	0.014327
245.68	1.5527	1065.0	0.00093900	137.14	138.60	0.77086	0.93993	2.0929	764.40	0.017479	157.46	0.14169	0.0099405	40.403	0.024751	398.56	436.99	1.9854	0.72756	1.1734	222.12	18.819	12.458	0.014331
245.70	1.5541	1064.8	0.00093910	137.19	138.65	0.77109	0.93991	2.0931	764.20	0.017710	157.40	0.14166	0.0099348	40.440	0.024728	398.56	436.99	1.9853	0.72767	1.1737	222.11	18.814	12.459	0.014335
245.73	1.5555	1064.7	0.00093921	137.25	138.71	0.77131	0.93989	2.0934	763.99	0.017940	157.33	0.14162	0.0099290	40.477	0.024706	398.56	436.99	1.9852	0.72778	1.1741	222.11	18.808	12.461	0.014339
245.76	1.5568	1064.6	0.00093931	137.30	138.77	0.77154	0.93986	2.0936	763.79	0.018170	157.26	0.14159	0.0099232	40.513	0.024683	398.56	436.99	1.9850	0.72789	1.1745	222.10	18.803	12.463	0.014343
245.78	1.5582	1064.5	0.00093941	137.36	138.82	0.77176	0.93984	2.0938	763.59	0.018401	157.19	0.14156	0.0099174	40.550	0.024661	398.56	436.99	1.9849	0.72800	1.1748	222.10	18.798	12.464	0.014346
245.81	1.5596	1064.4	0.00093952	137.41	138.88	0.77199	0.93982	2.0940	763.39	0.018631	157.12	0.14153	0.0099117	40.587	0.024639	398.57	436.99	1.9848	0.72811	1.1752	222.09	18.793	12.466	0.014350
245.84	1.5610	1064.3	0.00093962	137.47	138.93	0.77221	0.93979	2.0943	763.19	0.018862	157.05	0.14150	0.0099059	40.624	0.024616	398.57	436.99	1.9846	0.72822	1.1756	222.09	18.787	12.468	0.014354
245.86	1.5624	1064.1	0.00093972	137.52	138.99	0.77243	0.93977	2.0945	762.98	0.019093	156.99	0.14146	0.0099002	40.660	0.024594	398.57	436.99	1.9845	0.72834	1.1759	222.08	18.782	12.469	0.014358
245.89	1.5638	1064.0	0.00093982	137.58	139.05	0.77266	0.93975	2.0947	762.78	0.019323	156.92	0.14143	0.0098944	40.697	0.024572	398.57	437.00	1.9844	0.72845	1.1763	222.08	18.777	12.471	0.014362
245.92	1.5651	1063.9	0.00093993	137.63	139.10	0.77288	0.93972	2.0949	762.58	0.019554	156.85	0.14140	0.0098887	40.734	0.024549	398.57	437.00	1.9842	0.72856	1.1767	222.07	18.772	12.472	0.014366
245.95	1.5665	1063.8	0.00094003	137.69	139.16	0.77311	0.93970	2.0952	762.38	0.019785	156.78	0.14137	0.0098829	40.771	0.024527	398.58	437.00	1.9841	0.72867	1.1770	222.07	18.767	12.474	0.014370
245.97	1.5679	1063.7	0.00094013	137.74	139.22	0.77333	0.93967	2.0954	762.18	0.020016	156.72	0.14133	0.0098772	40.808	0.024505	398.58	437.00	1.9840	0.72878	1.1774	222.06	18.761	12.476	0.014374
246.00	1.5693	1063.6	0.00094024	137.80	139.27	0.77355	0.93965	2.0956	761.98	0.020247	156.65	0.14130	0.0098715	40.844	0.024483	398.58	437.00	1.9838	0.72889	1.1778	222.06	18.756	12.477	0.014377
246.03	1.5707	1063.4	0.00094034	137.85	139.33	0.77378	0.93963	2.0958	761.78	0.020478	156.58	0.14127	0.0098657	40.881	0.024461	398.58	437.00	1.9837	0.72900	1.1781	222.05	18.751	12.479	0.014381
246.05	1.5721	1063.3	0.00094044	137.91	139.39	0.77400	0.93960	2.0961	761.57	0.020709	156.51	0.14124	0.0098600	40.918	0.024439	398.58	437.00	1.9836	0.72911	1.1785	222.05	18.746	12.481	0.014385
246.08	1.5734	1063.2	0.00094054	137.96	139.44	0.77422	0.93958	2.0963	761.37	0.020940	156.45	0.14121	0.0098543	40.955	0.024417	398.58	437.00	1.9834	0.72922	1.1789	222.04	18.741	12.482	0.014389
246.11	1.5748	1063.1	0.00094065	138.02	139.50	0.77445	0.93956	2.0965	761.17	0.021171	156.38	0.14117	0.0098486	40.992	0.024395	398.59	437.00	1.9833	0.72933	1.1792	222.04	18.735	12.484	0.014393
246.13	1.5762	1063.0	0.00094075	138.07	139.55	0.77467	0.93953	2.0967	760.97	0.021403	156.31	0.14114	0.0098429	41.029	0.024373	398.59	437.01	1.9832	0.72944	1.1796	222.03	18.730	12.485	0.014397
246.16	1.5776	1062.9	0.00094085	138.13	139.61	0.77489	0.93951	2.0970	760.77	0.021634	156.24	0.14111	0.0098372	41.065	0.024351	398.59	437.01	1.9830	0.72955	1.1800	222.03	18.725	12.487	0.014401
246.19	1.5790	1062.8	0.00094095	138.18	139.67	0.77512	0.93949	2.0972	760.57	0.021865	156.18	0.14108	0.0098315	41.102	0.024330	398.59	437.01	1.9829	0.72966	1.1804	222.02	18.720	12.489	0.014404
246.21	1.5804	1062.6	0.00094106	138.24	139.72	0.77534	0.93947	2.0974	760.37	0.022097	156.11	0.14105	0.0098258	41.139	0.024308	398.59	437.01	1.9828	0.72977	1.1807	222.02	18.715	12.490	0.014408
246.24	1.5817	1062.5	0.00094116	138.29	139.78	0.77556	0.93944	2.0976	760.17	0.022328	156.04	0.14102	0.0098201	41.176	0.024286	398.60	437.01	1.9826	0.72988	1.1811	222.01	18.710	12.492	0.014412
246.27	1.5831	1062.4	0.00094126	138.34	139.83	0.77578	0.93942	2.0979	759.97	0.022560	155.98	0.14098	0.0098144	41.213	0.024264	398.60	437.01	1.9825	0.72999	1.1815	222.01	18.704	12.494	0.014416
246.29	1.5845	1062.3	0.00094136	138.40	139.89	0.77601	0.93940	2.0981	759.77	0.022791	155.91	0.14095	0.0098087	41.250	0.024243	398.60	437.01	1.9824	0.73010	1.1818	222.00	18.699	12.495	0.014420
246.32	1.5859	1062.2	0.00094147	138.45	139.95	0.77623	0.93937	2.0983	759.57	0.023023	155.84	0.14092	0.0098030	41.287	0.024221	398.60	437.01	1.9822	0.73021	1.1822	222.00	18.694	12.497	0.014424
246.35	1.5873	1062.1	0.00094157	138.51	140.00	0.77645	0.93935	2.0986	759.37	0.023255	155.78	0.14089	0.0097974	41.324	0.024199	398.60	437.01	1.9821	0.73032	1.1826	221.99	18.689	12.499	0.014428
246.37	1.5887	1061.9	0.00094167	138.56	140.06	0.77667	0.93933	2.0988	759.17	0.023487	155.71	0.14086	0.0097917	41.360	0.024178	398.61	437.02	1.9820	0.73043	1.1829	221.99	18.684	12.500	0.014432
246.40	1.5900	1061.8	0.00094177	138.62	140.11	0.77689	0.93930	2.0990	758.97	0.023719	155.64	0.14082	0.0097860	41.397	0.024156	398.61	437.02	1.9818	0.73054	1.1833	221.98	18.679	12.502	0.014435
246.43	1.5914	1061.7	0.00094188	138.67	140.17	0.77711	0.93928	2.0992	758.77	0.023951	155.58	0.14079	0.0097804	41.434	0.024135	398.61	437.02	1.9817	0.73065	1.1837	221.98	18.674	12.503	0.014439
246.45	1.5928	1061.6	0.00094198	138.73	140.23	0.77733	0.93926	2.0995	758.57	0.024183	155.51	0.14076	0.0097747	41.471	0.024113	398.61	437.02	1.9816	0.73076	1.1840	221.97	18.669	12.505	0.014443
246.48	1.5942	1061.5	0.00094208	138.78	140.28	0.77756	0.93924	2.0997	758.37	0.024415	155.44	0.14073	0.0097691	41.508	0.024092	398.61	437.02	1.9815	0.73087	1.1844	221.97	18.664	12.507	0.014447
246.51	1.5956	1061.4	0.00094218	138.83	140.34	0.77778	0.93921	2.0999	758.17	0.024647	155.38	0.14070	0.0097634	41.545	0.024070	398.61	437.02	1.9813	0.73098	1.1848	221.96	18.658	12.508	0.014451
246.53	1.5969	1061.2	0.00094229	138.89	140.39	0.77800	0.93919	2.1001	757.98	0.024879	155.31	0.14067	0.0097578	41.582	0.024049	398.62	437.02	1.9812	0.73109	1.1852	221.96	18.653	12.510	0.014455
246.56	1.5983	1061.1	0.00094239	138.94	140.45	0.77822	0.93917	2.1004	757.78	0.025111	155.25	0.14063	0.0097521	41.619	0.024028	398.62	437.02	1.9811	0.73120	1.1855	221.95	18.648	12.512	0.014459
246.59	1.5997	1061.0	0.00094249	139.00	140.50	0.77844	0.93915	2.1006	757.58	0.025344	155.18	0.14060	0.0097465	41.656	0.024006	398.62	437.02	1.9809	0.73131	1.1859	221.95	18.643	12.513	0.014462
246.61	1.6011	1060.9	0.00094259	139.05	140.56	0.77866	0.93912	2.1008	757.38	0.025576	155.11	0.14057	0.0097409	41.692	0.023985	398.62	437.02	1.9808	0.73142	1.1863	221.94	18.638	12.515	0.014466
246.64	1.6025	1060.8	0.00094270	139.11	140.62	0.77888	0.93910	2.1011	757.18	0.025809	155.05	0.14054	0.0097352	41.729	0.023964	398.62	437.02	1.9807	0.73153	1.1866	221.94	18.633	12.516	0.014470
246.67	1.6039	1060.7	0.00094280	139.16	140.67	0.77910	0.93908	2.1013	756.98	0.026041	154.98	0.14051	0.0097296	41.766	0.023943	398.62	437.03	1.9805	0.73164	1.1870	221.93	18.628	12.518	0.014474
246.69	1.6052	1060.6	0.00094290	139.21	140.73	0.77932	0.93906	2.1015	756.78	0.026274	154.92	0.14048	0.0097240	41.803	0.023922	398.63	437.03	1.9804	0.73175	1.1874	221.92	18.623	12.520	0.014478
246.72	1.6066	1060.4	0.00094300	139.27	140.78	0.77954	0.93903	2.1017	756.58	0.026506	154.85	0.14045	0.0097184	41.840	0.023900	398.63	437.03	1.9803	0.73186	1.1878	221.92	18.618	12.521	0.014482
246.75	1.6080	1060.3	0.00094311	139.32	140.84	0.77976	0.93901	2.1020	756.39	0.026739	154.79	0.14041	0.0097128	41.877	0.023879	398.63	437.03	1.9801	0.73197	1.1881	221.91	18.613	12.523	0.014486
246.77	1.6094	1060.2	0.00094321	139.38	140.89	0.77998	0.93899	2.1022	756.19	0.026972	154.72	0.14038	0.0097072	41.914	0.023858	398.63	437.03	1.9800	0.73208	1.1885	221.91	18.608	12.524	0.014490
246.80	1.6108	1060.1	0.00094331	139.43	140.95	0.78020	0.93897	2.1024	755.99	0.027205	154.65	0.14035	0.0097016	41.951	0.023837	398.63	437.03	1.9799	0.73219	1.1889	221.90	18.603	12.526	0.014493
246.83	1.6122	1060.0	0.00094341	139.48	141.00	0.78042	0.93894	2.1026	755.79	0.027438	154.59	0.14032	0.0096960	41.988	0.023816	398.63	437.03	1.9797	0.73230	1.1892	221.90	18.598	12.528	0.014497
246.85	1.6135	1059.9	0.00094351	139.54	141.06	0.78063	0.93892	2.1029	755.59	0.027671	154.52	0.14029	0.0096904	42.025	0.023795	398.64	437.03	1.9796	0.73241	1.1896	221.89	18.593	12.529	0.014501
246.88	1.6149	1059.8	0.00094362	139.59	141.11	0.78085	0.93890	2.1031	755.40	0.027904	154.46	0.14026	0.0096848	42.062	0.023774	398.64	437.03	1.9795	0.73252	1.1900	221.89	18.588	12.531	0.014505
246.90	1.6163	1059.6	0.00094372	139.64	141.17	0.78107	0.93888	2.1033	755.20	0.028137	154.39	0.14023	0.0096792	42.099	0.023754	398.64	437.03	1.9794	0.73263	1.1904	221.88	18.583	12.533	0.014509
246.93	1.6177	1059.5	0.00094382	139.70	141.23	0.78129	0.93885	2.1036	755.00	0.028370	154.33	0.14019	0.0096736	42.136	0.023733	398.64	437.03	1.9792	0.73274	1.1907	221.88	18.578	12.534	0.014513
246.96	1.6191	1059.4	0.00094392	139.75	141.28	0.78151	0.93883	2.1038	754.80	0.028603	154.26	0.14016	0.0096680	42.173	0.023712	398.64	437.03	1.9791	0.73285	1.1911	221.87	18.573	12.536	0.014517
246.98	1.6205	1059.3	0.00094402	139.81	141.34	0.78173	0.93881	2.1040	754.61	0.028836	154.20	0.14013	0.0096625	42.210	0.023691	398.64	437.03	1.9790	0.73296	1.1915	221.87	18.568	12.537	0.014520
247.01	1.6218	1059.2	0.00094413	139.86	141.39	0.78195	0.93879	2.1043	754.41	0.029070	154.13	0.14010	0.0096569	42.247	0.023670	398.65	437.04	1.9788	0.73307	1.1918	221.86	18.563	12.539	0.014524
247.04	1.6232	1059.1	0.00094423	139.91	141.45	0.78216	0.93877	2.1045	754.21	0.029303	154.07	0.14007	0.0096513	42.284	0.023650	398.65	437.04	1.9787	0.73318	1.1922	221.86	18.558	12.541	0.014528
247.06	1.6246	1059.0	0.00094433	139.97	141.50	0.78238	0.93874	2.1047	754.02	0.029537	154.00	0.14004	0.0096458	42.321	0.023629	398.65	437.04	1.9786	0.73329	1.1926	221.85	18.553	12.542	0.014532
247.09	1.6260	1058.8	0.00094443	140.02	141.56	0.78260	0.93872	2.1049	753.82	0.029770	153.94	0.14001	0.0096402	42.358	0.023608	398.65	437.04	1.9785	0.73340	1.1930	221.85	18.548	12.544	0.014536
247.11	1.6274	1058.7	0.00094453	140.07	141.61	0.78282	0.93870	2.1052	753.62	0.030004	153.87	0.13998	0.0096347	42.395	0.023588	398.65	437.04	1.9783	0.73351	1.1933	221.84	18.543	12.545	0.014540
247.14	1.6288	1058.6	0.00094464	140.13	141.67	0.78303	0.93868	2.1054	753.42	0.030238	153.81	0.13994	0.0096291	42.432	0.023567	398.65	437.04	1.9782	0.73362	1.1937	221.84	18.538	12.547	0.014544
247.17	1.6301	1058.5	0.00094474	140.18	141.72	0.78325	0.93866	2.1056	753.23	0.030471	153.75	0.13991	0.0096236	42.469	0.023547	398.65	437.04	1.9781	0.73373	1.1941	221.83	18.533	12.549	0.014548
247.19	1.6315	1058.4	0.00094484	140.24	141.78	0.78347	0.93863	2.1059	753.03	0.030705	153.68	0.13988	0.0096180	42.506	0.023526	398.66	437.04	1.9779	0.73384	1.1944	221.83	18.528	12.550	0.014551
247.22	1.6329	1058.3	0.00094494	140.29	141.83	0.78369	0.93861	2.1061	752.83	0.030939	153.62	0.13985	0.0096125	42.543	0.023506	398.66	437.04	1.9778	0.73395	1.1948	221.82	18.523	12.552	0.014555
247.24	1.6343	1058.2	0.00094504	140.34	141.89	0.78390	0.93859	2.1063	752.64	0.031173	153.55	0.13982	0.0096070	42.580	0.023485	398.66	437.04	1.9777	0.73406	1.1952	221.82	18.518	12.554	0.014559
247.27	1.6357	1058.0	0.00094515	140.40	141.94	0.78412	0.93857	2.1066	752.44	0.031407	153.49	0.13979	0.0096014	42.617	0.023465	398.66	437.04	1.9775	0.73417	1.1956	221.81	18.513	12.555	0.014563
247.30	1.6371	1057.9	0.00094525	140.45	142.00	0.78434	0.93855	2.1068	752.25	0.031641	153.42	0.13976	0.0095959	42.654	0.023445	398.66	437.04	1.9774	0.73428	1.1959	221.81	18.508	12.557	0.014567
247.32	1.6384	1057.8	0.00094535	140.50	142.05	0.78455	0.93853	2.1070	752.05	0.031875	153.36	0.13973	0.0095904	42.691	0.023424	398.66	437.04	1.9773	0.73439	1.1963	221.80	18.503	12.558	0.014571
247.35	1.6398	1057.7	0.00094545	140.56	142.11	0.78477	0.93850	2.1072	751.85	0.032109	153.30	0.13970	0.0095849	42.728	0.023404	398.67	437.04	1.9772	0.73450	1.1967	221.79	18.498	12.560	0.014575
247.38	1.6412	1057.6	0.00094555	140.61	142.16	0.78498	0.93848	2.1075	751.66	0.032344	153.23	0.13966	0.0095794	42.765	0.023384	398.67	437.04	1.9770	0.73461	1.1971	221.79	18.493	12.562	0.014578
247.40	1.6426	1057.5	0.00094565	140.66	142.22	0.78520	0.93846	2.1077	751.46	0.032578	153.17	0.13963	0.0095739	42.802	0.023363	398.67	437.04	1.9769	0.73472	1.1974	221.78	18.488	12.563	0.014582
247.43	1.6440	1057.4	0.00094576	140.72	142.27	0.78542	0.93844	2.1079	751.27	0.032812	153.10	0.13960	0.0095684	42.839	0.023343	398.67	437.04	1.9768	0.73483	1.1978	221.78	18.483	12.565	0.014586
247.45	1.6453	1057.2	0.00094586	140.77	142.32	0.78563	0.93842	2.1082	751.07	0.033047	153.04	0.13957	0.0095629	42.876	0.023323	398.67	437.05	1.9766	0.73493	1.1982	221.77	18.478	12.566	0.014590
247.48	1.6467	1057.1	0.00094596	140.82	142.38	0.78585	0.93840	2.1084	750.88	0.033281	152.98	0.13954	0.0095574	42.913	0.023303	398.67	437.05	1.9765	0.73504	1.1986	221.77	18.474	12.568	0.014594
247.51	1.6481	1057.0	0.00094606	140.87	142.43	0.78606	0.93838	2.1086	750.68	0.033516	152.91	0.13951	0.0095519	42.950	0.023283	398.67	437.05	1.9764	0.73515	1.1989	221.76	18.469	12.570	0.014598
247.53	1.6495	1056.9	0.00094616	140.93	142.49	0.78628	0.93835	2.1089	750.49	0.033751	152.85	0.13948	0.0095464	42.987	0.023263	398.68	437.05	1.9763	0.73526	1.1993	221.76	18.464	12.571	0.014602
247.56	1.6509	1056.8	0.00094626	140.98	142.54	0.78649	0.93833	2.1091	750.29	0.033986	152.79	0.13945	0.0095409	43.024	0.023243	398.68	437.05	1.9761	0.73537	1.1997	221.75	18.459	12.573	0.014606
247.58	1.6523	1056.7	0.00094637	141.03	142.60	0.78671	0.93831	2.1093	750.10	0.034220	152.72	0.13942	0.0095354	43.062	0.023223	398.68	437.05	1.9760	0.73548	1.2001	221.75	18.454	12.574	0.014609
247.61	1.6536	1056.6	0.00094647	141.09	142.65	0.78692	0.93829	2.1096	749.90	0.034455	152.66	0.13939	0.0095299	43.099	0.023203	398.68	437.05	1.9759	0.73559	1.2004	221.74	18.449	12.576	0.014613
247.63	1.6550	1056.4	0.00094657	141.14	142.71	0.78714	0.93827	2.1098	749.71	0.034690	152.60	0.13936	0.0095245	43.136	0.023183	398.68	437.05	1.9758	0.73570	1.2008	221.74	18.444	12.578	0.014617
247.66	1.6564	1056.3	0.00094667	141.19	142.76	0.78735	0.93825	2.1100	749.51	0.034925	152.53	0.13933	0.0095190	43.173	0.023163	398.68	437.05	1.9756	0.73581	1.2012	221.73	18.439	12.579	0.014621
247.69	1.6578	1056.2	0.00094677	141.25	142.82	0.78757	0.93823	2.1102	749.32	0.035160	152.47	0.13929	0.0095135	43.210	0.023143	398.68	437.05	1.9755	0.73592	1.2016	221.73	18.434	12.581	0.014625
247.71	1.6592	1056.1	0.00094687	141.30	142.87	0.78778	0.93821	2.1105	749.12	0.035395	152.41	0.13926	0.0095081	43.247	0.023123	398.68	437.05	1.9754	0.73603	1.2019	221.72	18.430	12.582	0.014629
247.74	1.6606	1056.0	0.00094698	141.35	142.92	0.78800	0.93819	2.1107	748.93	0.035631	152.34	0.13923	0.0095026	43.284	0.023103	398.69	437.05	1.9752	0.73614	1.2023	221.72	18.425	12.584	0.014633
247.76	1.6619	1055.9	0.00094708	141.40	142.98	0.78821	0.93816	2.1109	748.73	0.035866	152.28	0.13920	0.0094972	43.321	0.023083	398.69	437.05	1.9751	0.73625	1.2027	221.71	18.420	12.586	0.014636
247.79	1.6633	1055.8	0.00094718	141.46	143.03	0.78842	0.93814	2.1112	748.54	0.036101	152.22	0.13917	0.0094917	43.358	0.023064	398.69	437.05	1.9750	0.73636	1.2031	221.70	18.415	12.587	0.014640
247.82	1.6647	1055.7	0.00094728	141.51	143.09	0.78864	0.93812	2.1114	748.34	0.036337	152.16	0.13914	0.0094863	43.396	0.023044	398.69	437.05	1.9749	0.73646	1.2034	221.70	18.410	12.589	0.014644
247.84	1.6661	1055.5	0.00094738	141.56	143.14	0.78885	0.93810	2.1116	748.15	0.036572	152.09	0.13911	0.0094808	43.433	0.023024	398.69	437.05	1.9747	0.73657	1.2038	221.69	18.405	12.590	0.014648
247.87	1.6675	1055.4	0.00094748	141.62	143.20	0.78907	0.93808	2.1119	747.96	0.036808	152.03	0.13908	0.0094754	43.470	0.023004	398.69	437.05	1.9746	0.73668	1.2042	221.69	18.400	12.592	0.014652
247.89	1.6689	1055.3	0.00094758	141.67	143.25	0.78928	0.93806	2.1121	747.76	0.037043	151.97	0.13905	0.0094700	43.507	0.022985	398.69	437.05	1.9745	0.73679	1.2046	221.68	18.396	12.594	0.014656
247.92	1.6702	1055.2	0.00094769	141.72	143.30	0.78949	0.93804	2.1123	747.57	0.037279	151.91	0.13902	0.0094645	43.544	0.022965	398.70	437.05	1.9744	0.73690	1.2049	221.68	18.391	12.595	0.014660
247.94	1.6716	1055.1	0.00094779	141.77	143.36	0.78970	0.93802	2.1126	747.37	0.037515	151.84	0.13899	0.0094591	43.581	0.022946	398.70	437.05	1.9742	0.73701	1.2053	221.67	18.386	12.597	0.014663
247.97	1.6730	1055.0	0.00094789	141.83	143.41	0.78992	0.93800	2.1128	747.18	0.037750	151.78	0.13896	0.0094537	43.618	0.022926	398.70	437.05	1.9741	0.73712	1.2057	221.67	18.381	12.598	0.014667
248.00	1.6744	1054.9	0.00094799	141.88	143.47	0.79013	0.93798	2.1130	746.99	0.037986	151.72	0.13893	0.0094483	43.655	0.022907	398.70	437.05	1.9740	0.73723	1.2061	221.66	18.376	12.600	0.014671
248.02	1.6758	1054.8	0.00094809	141.93	143.52	0.79034	0.93796	2.1133	746.79	0.038222	151.66	0.13890	0.0094429	43.693	0.022887	398.70	437.05	1.9738	0.73734	1.2064	221.66	18.372	12.602	0.014675
248.05	1.6772	1054.6	0.00094819	141.98	143.57	0.79056	0.93794	2.1135	746.60	0.038458	151.59	0.13887	0.0094375	43.730	0.022868	398.70	437.05	1.9737	0.73745	1.2068	221.65	18.367	12.603	0.014679
248.07	1.6785	1054.5	0.00094829	142.04	143.63	0.79077	0.93791	2.1137	746.41	0.038694	151.53	0.13884	0.0094321	43.767	0.022848	398.70	437.05	1.9736	0.73756	1.2072	221.65	18.362	12.605	0.014683
248.10	1.6799	1054.4	0.00094839	142.09	143.68	0.79098	0.93789	2.1140	746.21	0.038930	151.47	0.13881	0.0094267	43.804	0.022829	398.70	437.05	1.9735	0.73766	1.2076	221.64	18.357	12.606	0.014687
248.12	1.6813	1054.3	0.00094850	142.14	143.74	0.79119	0.93787	2.1142	746.02	0.039167	151.41	0.13877	0.0094213	43.841	0.022810	398.71	437.06	1.9733	0.73777	1.2079	221.63	18.352	12.608	0.014691
248.15	1.6827	1054.2	0.00094860	142.19	143.79	0.79141	0.93785	2.1144	745.83	0.039403	151.35	0.13874	0.0094159	43.879	0.022790	398.71	437.06	1.9732	0.73788	1.2083	221.63	18.348	12.610	0.014694
248.17	1.6841	1054.1	0.00094870	142.25	143.84	0.79162	0.93783	2.1147	745.63	0.039639	151.28	0.13871	0.0094105	43.916	0.022771	398.71	437.06	1.9731	0.73799	1.2087	221.62	18.343	12.611	0.014698
248.20	1.6854	1054.0	0.00094880	142.30	143.90	0.79183	0.93781	2.1149	745.44	0.039876	151.22	0.13868	0.0094051	43.953	0.022752	398.71	437.06	1.9730	0.73810	1.2091	221.62	18.338	12.613	0.014702
248.23	1.6868	1053.9	0.00094890	142.35	143.95	0.79204	0.93779	2.1151	745.25	0.040112	151.16	0.13865	0.0093997	43.990	0.022732	398.71	437.06	1.9728	0.73821	1.2095	221.61	18.333	12.614	0.014706
248.25	1.6882	1053.7	0.00094900	142.40	144.01	0.79225	0.93777	2.1154	745.06	0.040349	151.10	0.13862	0.0093943	44.027	0.022713	398.71	437.06	1.9727	0.73832	1.2098	221.61	18.328	12.616	0.014710
248.28	1.6896	1053.6	0.00094910	142.46	144.06	0.79246	0.93775	2.1156	744.86	0.040585	151.04	0.13859	0.0093890	44.065	0.022694	398.71	437.06	1.9726	0.73843	1.2102	221.60	18.324	12.618	0.014714
248.30	1.6910	1053.5	0.00094920	142.51	144.11	0.79268	0.93773	2.1158	744.67	0.040822	150.97	0.13856	0.0093836	44.102	0.022675	398.71	437.06	1.9725	0.73854	1.2106	221.60	18.319	12.619	0.014718
248.33	1.6924	1053.4	0.00094931	142.56	144.17	0.79289	0.93771	2.1161	744.48	0.041059	150.91	0.13853	0.0093782	44.139	0.022656	398.71	437.06	1.9723	0.73864	1.2110	221.59	18.314	12.621	0.014721
248.35	1.6937	1053.3	0.00094941	142.61	144.22	0.79310	0.93769	2.1163	744.29	0.041296	150.85	0.13850	0.0093729	44.176	0.022637	398.72	437.06	1.9722	0.73875	1.2113	221.59	18.309	12.622	0.014725
248.38	1.6951	1053.2	0.00094951	142.67	144.28	0.79331	0.93767	2.1166	744.09	0.041533	150.79	0.13847	0.0093675	44.213	0.022618	398.72	437.06	1.9721	0.73886	1.2117	221.58	18.305	12.624	0.014729
248.40	1.6965	1053.1	0.00094961	142.72	144.33	0.79352	0.93765	2.1168	743.90	0.041770	150.73	0.13844	0.0093622	44.251	0.022599	398.72	437.06	1.9720	0.73897	1.2121	221.58	18.300	12.626	0.014733
248.43	1.6979	1053.0	0.00094971	142.77	144.38	0.79373	0.93763	2.1170	743.71	0.042007	150.67	0.13841	0.0093568	44.288	0.022580	398.72	437.06	1.9718	0.73908	1.2125	221.57	18.295	12.627	0.014737
248.45	1.6993	1052.8	0.00094981	142.82	144.44	0.79394	0.93761	2.1173	743.52	0.042244	150.61	0.13838	0.0093515	44.325	0.022561	398.72	437.06	1.9717	0.73919	1.2129	221.56	18.290	12.629	0.014741
248.48	1.7007	1052.7	0.00094991	142.87	144.49	0.79415	0.93759	2.1175	743.33	0.042481	150.54	0.13835	0.0093461	44.362	0.022542	398.72	437.06	1.9716	0.73930	1.2132	221.56	18.286	12.630	0.014745
248.51	1.7020	1052.6	0.00095001	142.93	144.54	0.79436	0.93757	2.1177	743.13	0.042718	150.48	0.13832	0.0093408	44.400	0.022523	398.72	437.06	1.9715	0.73941	1.2136	221.55	18.281	12.632	0.014749
248.53	1.7034	1052.5	0.00095011	142.98	144.60	0.79457	0.93755	2.1180	742.94	0.042955	150.42	0.13829	0.0093354	44.437	0.022504	398.72	437.06	1.9713	0.73951	1.2140	221.55	18.276	12.633	0.014752
248.56	1.7048	1052.4	0.00095021	143.03	144.65	0.79478	0.93753	2.1182	742.75	0.043193	150.36	0.13826	0.0093301	44.474	0.022485	398.73	437.06	1.9712	0.73962	1.2144	221.54	18.272	12.635	0.014756
248.58	1.7062	1052.3	0.00095032	143.08	144.70	0.79499	0.93751	2.1184	742.56	0.043430	150.30	0.13823	0.0093248	44.511	0.022466	398.73	437.06	1.9711	0.73973	1.2147	221.54	18.267	12.637	0.014760
248.61	1.7076	1052.2	0.00095042	143.13	144.76	0.79520	0.93749	2.1187	742.37	0.043668	150.24	0.13820	0.0093195	44.549	0.022447	398.73	437.06	1.9710	0.73984	1.2151	221.53	18.262	12.638	0.014764
248.63	1.7090	1052.1	0.00095052	143.19	144.81	0.79541	0.93747	2.1189	742.18	0.043905	150.18	0.13817	0.0093141	44.586	0.022429	398.73	437.06	1.9708	0.73995	1.2155	221.53	18.257	12.640	0.014768
248.66	1.7103	1051.9	0.00095062	143.24	144.86	0.79562	0.93745	2.1191	741.99	0.044143	150.12	0.13814	0.0093088	44.623	0.022410	398.73	437.06	1.9707	0.74006	1.2159	221.52	18.253	12.641	0.014772
248.68	1.7117	1051.8	0.00095072	143.29	144.92	0.79583	0.93743	2.1194	741.80	0.044381	150.06	0.13811	0.0093035	44.660	0.022391	398.73	437.06	1.9706	0.74017	1.2163	221.51	18.248	12.643	0.014776
248.71	1.7131	1051.7	0.00095082	143.34	144.97	0.79604	0.93741	2.1196	741.60	0.044618	150.00	0.13808	0.0092982	44.698	0.022372	398.73	437.06	1.9705	0.74028	1.2166	221.51	18.243	12.645	0.014779
248.73	1.7145	1051.6	0.00095092	143.39	145.02	0.79625	0.93739	2.1199	741.41	0.044856	149.94	0.13805	0.0092929	44.735	0.022354	398.73	437.06	1.9703	0.74038	1.2170	221.50	18.239	12.646	0.014783
248.76	1.7159	1051.5	0.00095102	143.45	145.08	0.79646	0.93737	2.1201	741.22	0.045094	149.88	0.13802	0.0092876	44.772	0.022335	398.73	437.06	1.9702	0.74049	1.2174	221.50	18.234	12.648	0.014787
248.78	1.7173	1051.4	0.00095112	143.50	145.13	0.79666	0.93735	2.1203	741.03	0.045332	149.82	0.13799	0.0092823	44.810	0.022317	398.73	437.06	1.9701	0.74060	1.2178	221.49	18.229	12.649	0.014791
248.81	1.7186	1051.3	0.00095122	143.55	145.18	0.79687	0.93733	2.1206	740.84	0.045570	149.75	0.13796	0.0092770	44.847	0.022298	398.74	437.06	1.9700	0.74071	1.2182	221.49	18.225	12.651	0.014795
248.83	1.7200	1051.2	0.00095132	143.60	145.24	0.79708	0.93731	2.1208	740.65	0.045809	149.69	0.13793	0.0092717	44.884	0.022280	398.74	437.06	1.9698	0.74082	1.2185	221.48	18.220	12.652	0.014799
248.86	1.7214	1051.1	0.00095143	143.65	145.29	0.79729	0.93729	2.1210	740.46	0.046047	149.63	0.13790	0.0092664	44.922	0.022261	398.74	437.06	1.9697	0.74093	1.2189	221.48	18.215	12.654	0.014803
248.88	1.7228	1050.9	0.00095153	143.70	145.34	0.79750	0.93727	2.1213	740.27	0.046285	149.57	0.13787	0.0092612	44.959	0.022243	398.74	437.06	1.9696	0.74104	1.2193	221.47	18.211	12.656	0.014807
248.91	1.7242	1050.8	0.00095163	143.76	145.40	0.79771	0.93725	2.1215	740.08	0.046523	149.51	0.13784	0.0092559	44.996	0.022224	398.74	437.06	1.9695	0.74114	1.2197	221.46	18.206	12.657	0.014810
248.93	1.7256	1050.7	0.00095173	143.81	145.45	0.79792	0.93724	2.1217	739.89	0.046762	149.45	0.13781	0.0092506	45.034	0.022206	398.74	437.06	1.9693	0.74125	1.2201	221.46	18.201	12.659	0.014814
248.96	1.7269	1050.6	0.00095183	143.86	145.50	0.79812	0.93722	2.1220	739.70	0.047000	149.39	0.13778	0.0092453	45.071	0.022187	398.74	437.06	1.9692	0.74136	1.2204	221.45	18.197	12.660	0.014818
248.98	1.7283	1050.5	0.00095193	143.91	145.56	0.79833	0.93720	2.1222	739.51	0.047239	149.33	0.13775	0.0092401	45.108	0.022169	398.74	437.06	1.9691	0.74147	1.2208	221.45	18.192	12.662	0.014822
249.01	1.7297	1050.4	0.00095203	143.96	145.61	0.79854	0.93718	2.1225	739.32	0.047478	149.27	0.13772	0.0092348	45.146	0.022151	398.74	437.06	1.9690	0.74158	1.2212	221.44	18.187	12.664	0.014826
